18:27:24.746;[m/s²] X,[m/s²] Y,[m/s²] Z,[°/s] X,[°/s] Y,[°/s] Z,[µT] X,[µT] Y,[µT] Z,[°] Direção,[RPM] 1,[RPM] 2,[RPM] 3,[RPM] 4,[hPa],[°C],[m] Baro ,[cm] Down,[m] Abs,[m] Rel,[°] X,[°] Y,[°] Z,[°] Acce X,[°] Acce Y,[°] Gyro X,[°] Gyro Y,[°] Gyro Z,[°] Mag Z
18:27:24.746;-0.038307227,-0.61291564,8.082825,0.02075553,-0.108878255,0.005100906,7.8200006,-4.14,5.9800005,309.87054,0.0,0.0,0.0,0.0,1006.47,29.3,56.60015,73.608154,56.60015,0.73608154,-3.9027205,-0.1465839,0.0,-4.336356,0.27076462,0.0,0.0,0.0,0.0
18:27:24.751;-0.038307227,-0.6052542,8.082825,0.081790686,0.13526237,-0.05593425,7.8200006,-4.1216,5.9800005,309.97595,0.0,0.0,0.0,0.0,1006.43,29.3,56.93572,73.608154,57.33623,0.73608154,-3.868704,-0.14304322,-0.052680902,-4.282355,0.27078384,7.3611614E-4,0.0012173613,4.590815E-5,-0.105407715
18:27:24.759;-0.038307227,-0.599125,8.082825,0.081790686,0.13526237,-0.05593425,7.8200006,-4.10688,5.9800005,310.06042,0.0,0.0,0.0,0.0,1006.43,29.3,56.93572,73.608154,57.33623,0.73608154,-3.829472,-0.13911983,-0.06877757,-4.239148,0.27079907,0.0013904417,0.0022994603,-4.0156586E-4,-0.18988037
18:27:24.769;-0.038307227,-0.5942217,8.082825,0.081790686,0.13526237,-0.05593425,7.8200006,-4.095104,5.9800005,310.12808,0.0,0.0,0.0,0.0,1006.43,29.3,56.93572,73.608154,57.33623,0.73608154,-3.7979515,-0.1359299,-0.06869797,-4.2045794,0.2708111,0.0022083484,0.0036520842,-9.6090836E-4,-0.25753784
18:27:24.779;-0.038307227,-0.5826376,8.067502,-0.2233851,0.13526237,0.18820637,7.8200006,-4.0856833,5.9800005,310.18228,0.0,0.0,0.0,0.0,1006.47,29.3,56.60015,73.608154,57.33623,0.73608154,-3.7314477,-0.12879366,-0.06220872,-4.1307015,0.27135098,-2.5502639E-5,0.0050047077,-0.0015202509,-0.31173706
18:27:24.789;-0.038307227,-0.57337034,8.0552435,-0.2233851,0.13526237,0.18820637,7.8200006,-4.078147,5.9800005,310.22568,0.0,0.0,0.0,0.0,1006.47,29.3,56.60015,73.608154,57.33623,0.73608154,-3.6773512,-0.122994214,-0.05262145,-4.0713873,0.27178407,-0.0022593536,0.0063573313,3.6181277E-4,-0.35513306
18:27:24.799;-0.038307227,-0.56595653,8.045437,-0.2233851,0.13526237,0.18820637,7.8200006,-4.072118,5.9800005,310.26044,0.0,0.0,0.0,0.0,1006.47,29.3,56.60015,73.608154,57.33623,0.73608154,-3.6339421,-0.118340746,-0.04256855,-4.0237994,0.27213135,-0.004493205,0.007709955,0.0022438765,-0.38989258
18:27:24.809;-0.045968674,-0.5753484,8.045253,-0.10131478,0.074227214,0.005100906,7.8384004,-4.0856943,5.9800005,310.23746,0.0,0.0,0.0,0.0,1006.47,29.3,56.60015,73.608154,57.33623,0.73608154,-3.6933146,-0.07537389,-0.0077314368,-4.090421,0.32653707,-0.0055063525,0.008452227,0.00412594,-0.36691284
18:27:24.819;-0.05209783,-0.58286184,8.045106,-0.10131478,0.074227214,0.005100906,7.8531203,-4.096555,5.9800005,310.21918,0.0,0.0,0.0,0.0,1006.41,29.3,57.10218,73.608154,57.33623,0.73608154,-3.7369769,-0.04057291,0.007362771,-4.143709,0.37005618,-0.0065195,0.0091945,0.004176949,-0.3486328
18:27:24.830;-0.057001155,-0.5888726,8.044989,-0.10131478,0.074227214,0.005100906,7.8648963,-4.105244,5.9800005,310.2046,0.0,0.0,0.0,0.0,1006.41,29.3,57.10218,73.608154,57.33623,0.73608154,-3.7718587,-0.012730569,0.013089066,-4.1863337,0.40486786,-0.007532648,0.009936772,0.004227958,-0.3340454
18:27:24.839;-0.053262368,-0.5936812,8.044894,0.081790686,0.13526237,0.06613606,7.874317,-4.1121955,5.9800005,310.19296,0.0,0.0,0.0,0.0,1006.41,29.3,57.10218,73.608154,57.33623,0.73608154,-3.7996035,-0.039354503,0.014497615,-4.220458,0.37830067,-0.006714741,0.011289396,0.004278967,-0.3224182
18:27:24.849;-0.05027134,-0.5975281,8.044819,0.081790686,0.13526237,0.06613606,7.8818536,-4.1177564,5.9800005,310.1837,0.0,0.0,0.0,0.0,1006.41,29.3,57.10218,73.608154,57.33623,0.73608154,-3.8268335,-0.06120494,0.014357643,-4.2477555,0.35704795,-0.0058968337,0.01264202,0.0049403277,-0.31314087
18:27:24.859;-0.04787852,-0.6006056,8.044759,0.081790686,0.13526237,0.06613606,7.8878827,-4.1222053,5.9800005,310.17627,0.0,0.0,0.0,0.0,1006.43,29.3,56.93572,73.608154,57.33623,0.73608154,-3.8486712,-0.07869008,0.013687551,-4.269592,0.34004644,-0.0050789267,0.013994644,0.0056016883,-0.3057251
18:27:24.870;-0.04596426,-0.60306764,8.04471,0.081790686,0.13526237,0.06613606,7.8927064,-4.1257644,5.9800005,310.17035,0.0,0.0,0.0,0.0,1006.43,29.3,56.93572,73.608154,57.33623,0.73608154,-3.8661337,-0.09266347,0.012968573,-4.2870607,0.32644567,-0.004179229,0.01548253,0.006329185,-0.2998047
18:27:24.879;-0.0520943,-0.58971435,8.059995,-0.040279627,0.25733268,-0.05593425,7.859765,-4.1102114,5.9800005,310.1608,0.0,0.0,0.0,0.0,1006.43,29.3,56.93572,73.608154,57.33623,0.73608154,-3.7753854,-0.044911385,0.014722493,-4.1845365,0.3693284,-0.0045417454,0.017798524,0.0069244094,-0.2902527
18:27:24.890;-0.05699833,-0.5790317,8.072222,-0.040279627,0.25733268,-0.05593425,7.833412,-4.0977693,5.9800005,310.1531,0.0,0.0,0.0,0.0,1006.43,29.3,56.93572,73.608154,57.33623,0.73608154,-3.6970346,-0.006248206,0.014361028,-4.102777,0.40352464,-0.004984821,0.020629184,0.0063091326,-0.28256226
18:27:24.902;-0.060921557,-0.5704856,8.082004,-0.040279627,0.25733268,-0.05593425,7.81233,-4.0878153,5.9800005,310.1469,0.0,0.0,0.0,0.0,1006.52997,29.3,56.098118,73.608154,57.33623,0.73608154,-3.63445,0.02456829,0.013124976,-4.037534,0.43081135,-0.005427897,0.023459844,0.0056938557,-0.2763672
18:27:24.911;-0.05639869,-0.57131016,8.082168,-0.2233851,0.013192058,-0.11696941,7.795464,-4.079852,5.9800005,310.14197,0.0,0.0,0.0,0.0,1006.52997,29.3,56.098118,73.608154,57.33623,0.73608154,-3.636701,-0.004722327,0.0116296355,-4.0432854,0.39881772,-0.0074383626,0.023578573,0.0051904474,-0.27142334
18:27:24.920;-0.052780397,-0.5719698,8.082299,-0.2233851,0.013192058,-0.11696941,7.7819715,-4.0734816,5.9800005,310.13797,0.0,0.0,0.0,0.0,1006.52997,29.3,56.098118,73.608154,57.33623,0.73608154,-3.6437922,-0.028464556,0.009824095,-4.047885,0.37322387,-0.009672213,0.023710493,0.0040207533,-0.26742554
18:27:24.931;-0.049885765,-0.57249755,8.082404,-0.2233851,0.013192058,-0.11696941,7.7711773,-4.068385,5.9800005,310.13477,0.0,0.0,0.0,0.0,1006.52997,29.3,56.098118,73.608154,57.33623,0.73608154,-3.6495,-0.047460884,0.007881265,-4.051564,0.35274956,-0.012129449,0.023855606,0.0027340897,-0.2642212
18:27:24.941;-0.047570057,-0.5805812,8.082488,-0.16234994,0.074227214,-0.11696941,7.780942,-4.064308,5.9800005,310.1879,0.0,0.0,0.0,0.0,1006.37,29.3,57.43775,73.608154,57.33623,0.73608154,-3.7025797,-0.06747809,-0.021784237,-4.108542,0.33634788,-0.0135905985,0.024523651,0.0016813651,-0.3173523
18:27:24.951;-0.045717493,-0.58704805,8.082556,-0.16234994,0.074227214,-0.11696941,7.7887535,-4.0610466,5.9800005,310.23035,0.0,0.0,0.0,0.0,1006.37,29.3,57.43775,73.608154,57.33623,0.73608154,-3.7456312,-0.08357611,-0.031919744,-4.1541166,0.32322818,-0.015376448,0.025340151,3.947016E-4,-0.35980225
18:27:24.961;-0.044235438,-0.59222156,8.082609,-0.16234994,0.074227214,-0.11696941,7.795003,-4.0584373,5.9800005,310.26425,0.0,0.0,0.0,0.0,1006.37,29.3,57.43775,73.608154,57.33623,0.73608154,-3.7800353,-0.096469164,-0.033299886,-4.1905727,0.3127335,-0.016999947,0.026082423,-7.749924E-4,-0.39370728
18:27:24.971;-0.043049797,-0.5963604,8.067329,0.02075553,0.074227214,0.12717122,7.8000026,-4.0563498,5.9800005,310.29138,0.0,0.0,0.0,0.0,1006.37,29.3,57.43775,73.608154,57.33623,0.73608154,-3.8145764,-0.10696882,-0.031128865,-4.2277203,0.30491337,-0.016813148,0.026750468,-0.0018277171,-0.4208374
18:27:24.985;-0.042101283,-0.5996714,8.055105,0.02075553,0.074227214,0.12717122,7.8040023,-4.05468,5.9800005,310.31305,0.0,0.0,0.0,0.0,1006.41,29.3,57.10218,73.53904,57.33554,0.7353904,-3.8424513,-0.115368515,-0.026421832,-4.2575374,0.29863635,-0.01652257,0.027789649,-4.7319918E-5,-0.44250488
18:27:24.993;-0.049003918,-0.5869974,8.060649,-0.16234994,0.074227214,0.06613606,7.825602,-4.071744,5.9800005,310.2794,0.0,0.0,0.0,0.0,1006.41,29.3,57.10218,73.53904,57.33554,0.7353904,-3.7601655,-0.06329733,0.0041045533,-4.1649985,0.34739983,-0.01782137,0.028383465,9.700499E-4,-0.408844
18:27:25.003;-0.054526024,-0.57685816,8.065084,-0.16234994,0.074227214,0.06613606,7.8428817,-4.0853953,5.9800005,310.2526,0.0,0.0,0.0,0.0,1006.41,29.3,57.10218,73.53904,57.33554,0.7353904,-3.6884456,-0.021030307,0.016298266,-4.0910416,0.38636956,-0.01960722,0.029199965,0.0016975466,-0.38204956
18:27:25.013;-0.05894371,-0.56874675,8.068632,-0.16234994,0.074227214,0.06613606,7.856705,-4.0963163,5.9800005,310.23126,0.0,0.0,0.0,0.0,1006.41,29.3,57.10218,73.53904,57.33554,0.7353904,-3.6309972,0.012741566,0.019994479,-4.0319242,0.417519,-0.02123072,0.029942237,0.0023589071,-0.36071777
18:27:25.023;-0.054816414,-0.5775805,8.063809,-0.16234994,0.13526237,0.06613606,7.867764,-4.105053,5.9800005,310.21423,0.0,0.0,0.0,0.0,1006.41,29.3,57.10218,73.53904,57.33554,0.7353904,-3.6860008,-0.018827587,0.020021778,-4.0967917,0.38848582,-0.02285422,0.03129486,0.0030202677,-0.34368896
18:27:25.035;-0.051514577,-0.58464754,8.059951,-0.16234994,0.13526237,0.06613606,7.876611,-4.1120424,5.9800005,310.20068,0.0,0.0,0.0,0.0,1006.41,29.3,57.10218,73.53904,57.33554,0.7353904,-3.7359216,-0.044729948,0.018659674,-4.1487336,0.36523715,-0.02464007,0.032782745,0.0037477645,-0.33013916
18:27:25.045;-0.048873108,-0.59030116,8.056864,-0.16234994,0.13526237,0.06613606,7.883689,-4.117634,5.9800005,310.18985,0.0,0.0,0.0,0.0,1006.41,29.3,57.10218,73.53904,57.33554,0.7353904,-3.7759378,-0.06548333,0.016984338,-4.190318,0.34662408,-0.02642592,0.03427063,0.004475261,-0.31930542
18:27:25.054;-0.046759933,-0.5948241,8.054395,-0.10131478,0.19629753,-0.11696941,7.8893514,-4.122107,5.9800005,310.1812,0.0,0.0,0.0,0.0,1006.41,29.3,57.10218,73.53904,57.33554,0.7353904,-3.807884,-0.08205962,0.015345649,-4.223605,0.33172458,-0.027337754,0.036037307,0.0050704856,-0.31066895
18:27:25.065;-0.045069393,-0.5984424,8.05242,-0.10131478,0.19629753,-0.11696941,7.8938813,-4.1256857,5.9800005,310.1743,0.0,0.0,0.0,0.0,1006.43,29.3,56.93572,73.53904,57.33554,0.7353904,-3.8335392,-0.095318705,0.01302848,-4.2502465,0.3197992,-0.028452218,0.03819658,0.003783822,-0.30374146
18:27:25.076;-0.04371696,-0.601337,8.050839,-0.10131478,0.19629753,-0.11696941,7.8975053,-4.1285486,5.9800005,310.16876,0.0,0.0,0.0,0.0,1006.43,29.3,56.93572,73.53904,57.33554,0.7353904,-3.8540547,-0.10595986,0.01052466,-4.2715683,0.3102552,-0.029566681,0.04035585,0.0024971585,-0.29821777
18:27:25.084;-0.042635012,-0.5959913,8.057237,-0.2233851,0.074227214,-0.17800456,7.8820043,-4.130839,5.9432006,310.10947,0.0,0.0,0.0,0.0,1006.43,29.3,56.93572,73.608154,57.33623,0.73608154,-3.8181233,-0.10963544,0.03569086,-4.2303877,0.3023528,-0.03135376,0.04094967,0.0015614032,-0.23892212
18:27:25.094;-0.041769456,-0.59171474,8.062354,-0.2233851,0.074227214,-0.17800456,7.8696036,-4.132671,5.9137607,310.0619,0.0,0.0,0.0,0.0,1006.43,29.3,56.93572,73.608154,57.33623,0.73608154,-3.7889254,-0.11238307,0.04152456,-4.1974874,0.2960392,-0.033587612,0.04169194,-2.1864241E-4,-0.19134521
18:27:25.105;-0.04107701,-0.5882935,8.066448,-0.2233851,0.074227214,-0.17800456,7.859683,-4.1341367,5.8902087,310.02377,0.0,0.0,0.0,0.0,1006.31,29.3,57.93978,73.608154,57.33623,0.73608154,-3.7655597,-0.114580095,0.03873216,-4.171195,0.2909936,-0.036044847,0.04250844,-0.0021766925,-0.15322876
18:27:25.114;-0.040523052,-0.58555645,8.062062,-0.10131478,0.44043815,-0.05593425,7.8517466,-4.135309,5.871367,309.99323,0.0,0.0,0.0,0.0,1006.31,29.3,57.93978,73.608154,57.33623,0.73608154,-3.7502468,-0.11611968,0.03275076,-4.1541085,0.28723177,-0.03695668,0.04647238,-0.0037787333,-0.122680664
18:27:25.125;-0.040079888,-0.5833668,8.058554,-0.10131478,0.44043815,-0.05593425,7.8453975,-4.136247,5.8562937,309.96875,0.0,0.0,0.0,0.0,1006.31,29.3,57.93978,73.53904,57.33554,0.7353904,-3.7380962,-0.11757189,0.026443891,-4.1404257,0.28421924,-0.037969828,0.050876763,-0.004338076,-0.09820557
18:27:25.134;-0.039725356,-0.58161515,8.055746,-0.10131478,0.44043815,-0.05593425,7.840318,-4.1369977,5.844235,309.94916,0.0,0.0,0.0,0.0,1006.31,29.3,57.93978,73.53904,57.33554,0.7353904,-3.728382,-0.118771255,0.020569379,-4.129471,0.28180727,-0.038982976,0.055281144,-0.0048974184,-0.07861328
18:27:25.144;-0.03944173,-0.58787525,8.0381775,-0.16234994,0.25733268,0.06613606,7.854655,-4.1191983,5.852988,310.09406,0.0,0.0,0.0,0.0,1006.31,29.3,57.93978,73.53904,57.33554,0.7353904,-3.7766058,-0.12505424,-0.064892426,-4.182852,0.28038782,-0.040606476,0.05785447,-0.005456761,-0.22351074
18:27:25.154;-0.03921483,-0.59288335,8.024122,-0.16234994,0.25733268,0.06613606,7.8661237,-4.1049585,5.85999,310.2099,0.0,0.0,0.0,0.0,1006.35,29.3,57.604214,73.53904,57.33554,0.7353904,-3.8158154,-0.13000122,-0.09276628,-4.22572,0.2792478,-0.042229977,0.060427796,-0.0047954004,-0.33935547
18:27:25.165;-0.03903331,-0.5968898,8.012878,-0.16234994,0.25733268,0.06613606,7.875299,-4.093567,5.865592,310.3025,0.0,0.0,0.0,0.0,1006.35,29.3,57.604214,73.53904,57.33554,0.7353904,-3.8472693,-0.13397005,-0.09474533,-4.260119,0.27833283,-0.043853477,0.063001126,-0.00413404,-0.4319458
18:27:25.174;-0.038888093,-0.5924335,8.011545,-0.040279627,0.13526237,-0.17800456,7.8826394,-4.0844536,5.870074,310.37653,0.0,0.0,0.0,0.0,1006.35,29.3,57.604214,73.53904,57.33554,0.7353904,-3.819655,-0.13221109,-0.086126834,-4.2291307,0.27735463,-0.044256274,0.06435375,-0.0034726793,-0.50598145
18:27:25.184;-0.03877192,-0.5888685,8.010478,-0.040279627,0.13526237,-0.17800456,7.8885117,-4.0771627,5.873659,310.43573,0.0,0.0,0.0,0.0,1006.35,29.3,57.604214,73.608154,57.33623,0.73608154,-3.7971594,-0.13066614,-0.07529183,-4.2043314,0.27657175,-0.04465907,0.06570637,-0.005252725,-0.56518555
18:27:25.195;-0.03867898,-0.5860165,8.0096245,-0.040279627,0.13526237,-0.17800456,7.8932095,-4.07133,5.8765273,310.48306,0.0,0.0,0.0,0.0,1006.43,29.3,56.93572,73.608154,57.33623,0.73608154,-3.779148,-0.12941532,-0.06491768,-4.184486,0.27594522,-0.045102146,0.06719426,-0.0072107753,-0.6125183
18:27:25.204;-0.046266075,-0.5760734,8.016603,0.02075553,-0.0478431,-0.17800456,7.8785677,-4.085064,5.897222,310.36093,0.0,0.0,0.0,0.0,1006.43,29.3,56.93572,73.608154,57.33623,0.73608154,-3.7120516,-0.074413866,0.024200425,-4.110143,0.32981595,-0.044915345,0.06676367,-0.008812816,-0.49038696
18:27:25.215;-0.05233575,-0.568119,8.022186,0.02075553,-0.0478431,-0.17800456,7.866854,-4.096051,5.913778,310.2631,0.0,0.0,0.0,0.0,1006.43,29.3,56.93572,73.608154,57.33623,0.73608154,-3.6530943,-0.029795706,0.055634458,-4.0507507,0.3728515,-0.044687033,0.0662374,-0.010770866,-0.3925476
18:27:25.226;-0.05719149,-0.5617554,8.026652,0.02075553,-0.0478431,-0.17800456,7.8574834,-4.1048408,5.9270225,310.18472,0.0,0.0,0.0,0.0,1006.43,29.3,56.93572,73.608154,57.33623,0.73608154,-3.6059165,0.0058724284,0.06063734,-4.0032887,0.4072408,-0.04445872,0.065711126,-0.012728916,-0.31417847
18:27:25.235;-0.05341464,-0.564326,8.030226,-0.16234994,0.13526237,-0.11696941,7.849987,-4.1118727,5.9376183,310.12198,0.0,0.0,0.0,0.0,1006.43,29.3,56.93572,73.608154,57.33623,0.73608154,-3.617358,-0.019460171,0.054525264,-4.019777,0.38017103,-0.04591987,0.06692848,-0.014330956,-0.25143433
18:27:25.246;-0.050393157,-0.56638247,8.033084,-0.16234994,0.13526237,-0.11696941,7.84399,-4.117498,5.9460945,310.07178,0.0,0.0,0.0,0.0,1006.43,29.3,56.93572,73.608154,57.33623,0.73608154,-3.6317687,-0.040361702,0.044613015,-4.032956,0.35853323,-0.04754337,0.06828111,-0.01550065,-0.20123291
18:27:25.256;-0.047975972,-0.5680277,8.035371,-0.16234994,0.13526237,-0.11696941,7.839192,-4.1219983,5.9528756,310.03156,0.0,0.0,0.0,0.0,1006.43,29.3,56.93572,73.608154,57.33623,0.73608154,-3.6433578,-0.057075918,0.034023937,-4.0434923,0.3412345,-0.049329218,0.069768995,-0.016787313,-0.16101074
18:27:25.266;-0.046042223,-0.5846667,8.0601845,-0.2233851,0.074227214,0.06613606,7.8169537,-4.1255984,5.9583006,309.94382,0.0,0.0,0.0,0.0,1006.43,29.3,56.93572,73.608154,57.33623,0.73608154,-3.7398207,-0.08012116,0.051902484,-4.1487665,0.3264297,-0.05156307,0.07051127,-0.017957008,-0.073272705
18:27:25.275;-0.044495225,-0.59797794,8.080035,-0.2233851,0.074227214,0.06613606,7.799163,-4.1284785,5.962641,309.87335,0.0,0.0,0.0,0.0,1006.35,29.3,57.604214,73.608154,57.33623,0.73608154,-3.817463,-0.09849152,0.052502897,-4.2325,0.31465334,-0.053573534,0.07117931,-0.017361782,-0.0028076172
18:27:25.287;-0.043257624,-0.6086269,8.095916,-0.2233851,0.074227214,0.06613606,7.78493,-4.1307826,5.9661126,309.81683,0.0,0.0,0.0,0.0,1006.35,29.3,57.604214,73.53904,57.33554,0.7353904,-3.8793778,-0.113101095,0.04622665,-4.2991786,0.30527514,-0.056254156,0.07207003,-0.01656815,0.053710938
18:27:25.296;-0.042267546,-0.6171461,8.085636,-0.2233851,0.13526237,-0.17800456,7.7735443,-4.132626,5.96889,309.77148,0.0,0.0,0.0,0.0,1006.35,29.3,57.604214,73.53904,57.33554,0.7353904,-3.9396722,-0.12508166,0.037768357,-4.3646483,0.2986415,-0.058041237,0.07315213,-0.016039062,0.09906006
18:27:25.306;-0.041475482,-0.62396145,8.077413,-0.2233851,0.13526237,-0.17800456,7.7644353,-4.134101,5.9711123,309.73517,0.0,0.0,0.0,0.0,1006.35,29.3,57.604214,73.53904,57.33554,0.7353904,-3.988154,-0.13468948,0.028132584,-4.417136,0.29332298,-0.06027509,0.074504755,-0.017819108,0.13537598
18:27:25.317;-0.040841833,-0.6294137,8.070833,-0.2233851,0.13526237,-0.17800456,7.7571483,-4.1352806,5.97289,309.70605,0.0,0.0,0.0,0.0,1006.52997,29.3,56.098118,73.53904,57.33554,0.7353904,-4.0270157,-0.14238456,0.018645596,-4.4591985,0.28906077,-0.06295571,0.0761279,-0.019955164,0.16448975
18:27:25.326;-0.04033491,-0.62611413,8.06557,0.081790686,0.013192058,-0.30007488,7.7513185,-4.1178246,5.955912,309.7887,0.0,0.0,0.0,0.0,1006.52997,29.3,56.098118,73.608154,57.33623,0.73608154,-4.009093,-0.14379823,-0.042776603,-4.4388,0.28566724,-0.062301382,0.07623344,-0.021557204,0.081848145
18:27:25.336;-0.039929375,-0.6234744,8.061359,0.081790686,0.013192058,-0.30007488,7.746655,-4.10386,5.94233,309.855,0.0,0.0,0.0,0.0,1006.52997,29.3,56.098118,73.608154,57.33623,0.73608154,-3.9945123,-0.14478388,-0.06667459,-4.4224606,0.2829491,-0.061483476,0.07636536,-0.024257878,0.015533447
18:27:25.347;-0.039604947,-0.6213627,8.057991,0.081790686,0.013192058,-0.30007488,7.742924,-4.092688,5.9314637,309.90817,0.0,0.0,0.0,0.0,1006.52997,29.3,56.098118,73.608154,57.33623,0.73608154,-3.982819,-0.1455709,-0.073847495,-4.4093766,0.28077242,-0.06050199,0.07652366,-0.027858777,-0.037628174
18:27:25.356;-0.04700685,-0.6273347,8.055296,0.081790686,0.13526237,0.005100906,7.739939,-4.0837507,5.922771,309.95078,0.0,0.0,0.0,0.0,1006.37,29.3,57.43775,73.608154,57.33623,0.73608154,-4.022227,-0.102097094,-0.073504746,-4.453048,0.33333763,-0.05976587,0.07774102,-0.03055945,-0.08023071
18:27:25.367;-0.05292837,-0.6321123,8.053141,0.081790686,0.13526237,0.005100906,7.737551,-4.0766006,5.915817,309.9849,0.0,0.0,0.0,0.0,1006.37,29.3,57.43775,73.608154,57.33623,0.73608154,-4.049319,-0.06691405,-0.069063365,-4.487999,0.37541005,-0.058866173,0.07922891,-0.03050334,-0.114349365
18:27:25.378;-0.057665586,-0.6359344,8.051416,0.081790686,0.13526237,0.005100906,7.735641,-4.0708804,5.9102535,310.01224,0.0,0.0,0.0,0.0,1006.37,29.3,57.43775,73.608154,57.33623,0.73608154,-4.070973,-0.038775712,-0.06342717,-4.5159683,0.40908092,-0.057966474,0.080716796,-0.03044723,-0.14169312
18:27:25.388;-0.053793915,-0.63133067,8.050036,-0.46752572,0.19629753,0.005100906,7.715713,-4.0847044,5.9058027,309.87103,0.0,0.0,0.0,0.0,1006.37,29.3,57.43775,73.608154,57.33623,0.73608154,-4.040116,-0.060287,0.02369072,-4.48419,0.3816981,-0.06264173,0.08267977,-0.030396221,-4.8828125E-4
18:27:25.399;-0.050696578,-0.62764764,8.048933,-0.46752572,0.19629753,0.005100906,7.6997705,-4.0957637,5.902242,309.7578,0.0,0.0,0.0,0.0,1006.41,29.3,57.10218,73.608154,57.33623,0.73608154,-4.019423,-0.07792154,0.05328541,-4.4587555,0.35978317,-0.06778452,0.084839046,-0.03034011,0.11273193
18:27:25.410;-0.04821871,-0.62470126,8.04805,-0.46752572,0.19629753,0.005100906,7.6870165,-4.104611,5.8993936,309.66708,0.0,0.0,0.0,0.0,1006.41,29.3,57.10218,73.608154,57.33623,0.73608154,-4.002868,-0.09204981,0.05686508,-4.438402,0.34224567,-0.0729273,0.08699832,-0.030284,0.2034607
18:27:25.420;-0.04623641,-0.6146827,8.039682,0.02075553,0.13526237,-0.05593425,7.676813,-4.1116886,5.8971148,309.5944,0.0,0.0,0.0,0.0,1006.41,29.3,57.10218,73.608154,57.33623,0.73608154,-3.9440138,-0.09857389,0.04966248,-4.372033,0.32854694,-0.072719745,0.088350944,-0.030232992,0.27615356
18:27:25.430;-0.044650573,-0.6066678,8.032988,0.02075553,0.13526237,-0.05593425,7.6686506,-4.117351,5.895292,309.53616,0.0,0.0,0.0,0.0,1006.41,29.3,57.10218,73.608154,57.33623,0.73608154,-3.896784,-0.103734344,0.038548842,-4.3188305,0.31756535,-0.07251219,0.08970357,-0.030792335,0.3343811
18:27:25.441;-0.043381903,-0.6002559,8.027632,0.02075553,0.13526237,-0.05593425,7.6621203,-4.121881,5.8938336,309.48953,0.0,0.0,0.0,0.0,1006.41,29.3,57.10218,73.608154,57.33623,0.73608154,-3.8589296,-0.10785517,0.026886044,-4.276199,0.3087656,-0.07228388,0.091191456,-0.031407613,0.38101196
18:27:25.450;-0.042366967,-0.60278785,8.038671,-0.16234994,0.379403,0.06613606,7.656896,-4.125505,5.892667,309.4522,0.0,0.0,0.0,0.0,1006.41,29.3,57.10218,73.608154,57.33623,0.73608154,-3.870399,-0.11568761,0.01614901,-4.288297,0.30112317,-0.07374503,0.09460608,-0.031911023,0.41833496
18:27:25.460;-0.041555017,-0.6048134,8.047502,-0.16234994,0.379403,0.06613606,7.652717,-4.128404,5.8917336,309.42233,0.0,0.0,0.0,0.0,1006.41,29.3,57.10218,73.608154,57.33623,0.73608154,-3.8798876,-0.1220873,0.0073880283,-4.2979517,0.2950245,-0.07536852,0.09840011,-0.031249663,0.44821167
18:27:25.470;-0.04090546,-0.60643387,8.054566,-0.16234994,0.379403,0.06613606,7.6493735,-4.1307235,5.890987,309.3984,0.0,0.0,0.0,0.0,1006.41,29.3,57.10218,73.608154,57.33623,0.73608154,-3.8874648,-0.12722728,3.6275387E-4,-4.30566,0.29015535,-0.07699202,0.10219414,-0.030588303,0.47213745
18:27:25.493;-0.040385813,-0.6077302,8.060218,-0.040279627,-0.0478431,-0.11696941,7.6650987,-4.132579,5.8903894,309.43683,0.0,0.0,0.0,0.0,1006.43,29.3,56.93572,73.608154,57.33623,0.73608154,-3.8934505,-0.1318155,-0.033563025,-4.3118167,0.2862662,-0.077918455,0.10109375,-0.029067174,0.43371582
18:27:25.501;-0.039970096,-0.6087673,8.064739,-0.040279627,-0.0478431,-0.11696941,7.677679,-4.1340632,5.8899117,309.46747,0.0,0.0,0.0,0.0,1006.43,29.3,56.93572,73.608154,57.33623,0.73608154,-3.8982718,-0.13501772,-0.047044314,-4.3167357,0.28315887,-0.078200415,0.10075884,-0.029885959,0.40307617
18:27:25.511;-0.03963752,-0.60959697,8.0683565,-0.16234994,0.013192058,-0.11696941,7.687743,-4.1352506,5.889529,309.49194,0.0,0.0,0.0,0.0,1006.43,29.3,56.93572,73.608154,57.33623,0.73608154,-3.9022806,-0.13760561,-0.05134602,-4.320667,0.2806755,-0.07998627,0.10090396,-0.031172622,0.37860107
18:27:25.522;-0.03937146,-0.6102607,8.07125,-0.16234994,0.013192058,-0.11696941,7.6957946,-4.1362004,5.8892236,309.51147,0.0,0.0,0.0,0.0,1006.43,29.3,56.93572,73.608154,57.33623,0.73608154,-3.9053514,-0.13970056,-0.05160979,-4.3238096,0.27869046,-0.08160976,0.10103588,-0.032342315,0.35906982
18:27:25.531;-0.039158612,-0.6107917,8.073565,-0.16234994,0.013192058,-0.11696941,7.7022357,-4.1369605,5.888979,309.52704,0.0,0.0,0.0,0.0,1006.43,29.3,56.93572,73.608154,57.33623,0.73608154,-3.9078224,-0.14137596,-0.05034288,-4.326322,0.27710345,-0.08323326,0.1011678,-0.033512007,0.34350586
18:27:25.541;-0.03132689,-0.59589356,8.060094,-0.3454554,-0.0478431,0.24924153,7.7073884,-4.1375685,5.888783,309.53952,0.0,0.0,0.0,0.0,1006.43,29.3,56.93572,73.608154,57.33623,0.73608154,-3.819855,-0.18215448,-0.04869465,-4.2282295,0.22208232,-0.08634236,0.10073721,-0.034564734,0.33102417
18:27:25.551;-0.025061512,-0.5839751,8.049317,-0.3454554,-0.0478431,0.24924153,7.7115107,-4.138055,5.8886266,309.54947,0.0,0.0,0.0,0.0,1006.43,29.3,56.93572,73.608154,57.33623,0.73608154,-3.7531435,-0.21523723,-0.045233227,-4.149498,0.17792195,-0.09014237,0.100210935,-0.031823076,0.32107544
18:27:25.561;-0.02004921,-0.5744403,8.040696,-0.3454554,-0.0478431,0.24924153,7.7148085,-4.138444,5.888501,309.55743,0.0,0.0,0.0,0.0,1006.47,29.3,56.60015,73.608154,57.33623,0.73608154,-3.6995819,-0.24175458,-0.04126449,-4.0863476,0.14250165,-0.09359692,0.0997325,-0.029330662,0.31311035
18:27:25.570;-0.023700815,-0.56681246,8.04146,-0.2233851,-0.108878255,0.06613606,7.717447,-4.1387553,5.888401,309.5638,0.0,0.0,0.0,0.0,1006.47,29.3,56.60015,73.608154,57.33623,0.73608154,-3.6530678,-0.21379891,-0.037365075,-4.0318794,0.16845098,-0.095607385,0.098752595,-0.027087487,0.30673218
18:27:25.580;-0.026622098,-0.5607102,8.042071,-0.2233851,-0.108878255,0.06613606,7.7195573,-4.139004,5.888321,309.5689,0.0,0.0,0.0,0.0,1006.47,29.3,56.60015,73.608154,57.33623,0.73608154,-3.6110792,-0.19092849,-0.034443818,-3.9883065,0.18920925,-0.09784123,0.09766381,-0.026426127,0.30163574
18:27:25.591;-0.028959123,-0.5558284,8.042561,-0.2233851,-0.108878255,0.06613606,7.721246,-4.1392035,5.8882565,309.57297,0.0,0.0,0.0,0.0,1006.47,29.3,56.60015,73.608154,57.33623,0.73608154,-3.5774431,-0.17263053,-0.032100644,-3.9534495,0.20581506,-0.10029847,0.096466154,-0.02569863,0.2975769
18:27:25.600;-0.03849019,-0.551923,8.065936,0.02075553,0.44043815,-0.05593425,7.7225966,-4.157763,5.9066052,309.47028,0.0,0.0,0.0,0.0,1006.41,29.3,57.10218,73.608154,57.33623,0.73608154,-3.5402021,-0.10812876,0.022743799,-3.9143977,0.2727723,-0.10011167,0.10043009,-0.025103405,0.40026855
18:27:25.611;-0.046115045,-0.5487986,8.084637,0.02075553,0.44043815,-0.05593425,7.723677,-4.1726103,5.921284,309.3883,0.0,0.0,0.0,0.0,1006.41,29.3,57.10218,73.608154,57.33623,0.73608154,-3.5057733,-0.056680053,0.03952563,-3.8833127,0.3260632,-0.09990411,0.104834475,-0.025662748,0.48223877
18:27:25.625;-0.052214928,-0.54629916,8.099597,0.02075553,0.44043815,-0.05593425,7.7245417,-4.1844883,5.9330273,309.3228,0.0,0.0,0.0,0.0,1006.41,29.3,57.10218,73.608154,57.33623,0.73608154,-3.4783268,-0.015503079,0.039257295,-3.8585443,0.36852106,-0.09959278,0.111441046,-0.026501762,0.5477295
18:27:25.636;-0.049433388,-0.551961,8.088581,-0.10131478,0.25733268,0.005100906,7.7252336,-4.1939907,5.942422,309.2705,0.0,0.0,0.0,0.0,1006.41,29.3,57.10218,73.608154,57.33623,0.73608154,-3.515003,-0.03680536,0.032223694,-3.9037125,0.34934655,-0.10070725,0.11427171,-0.027117038,0.6000366
18:27:25.647;-0.047208156,-0.5564905,8.079768,-0.10131478,0.25733268,0.005100906,7.7257867,-4.2015924,5.949938,309.2287,0.0,0.0,0.0,0.0,1006.41,29.3,57.10218,73.608154,57.33623,0.73608154,-3.549731,-0.054116547,0.023485925,-3.9399323,0.33397058,-0.10182171,0.11710237,-0.027060928,0.6418457
18:27:25.658;-0.04542797,-0.5601141,8.072718,-0.10131478,0.25733268,0.005100906,7.726229,-4.207674,5.9559503,309.19528,0.0,0.0,0.0,0.0,1006.41,29.3,57.10218,73.608154,57.33623,0.73608154,-3.5775898,-0.06799409,0.014948928,-3.968963,0.32164648,-0.10293618,0.11993303,-0.027004818,0.67526245
18:27:25.667;-0.044003822,-0.5706744,8.074739,-0.10131478,0.013192058,0.06613606,7.7265835,-4.212539,5.96076,309.16858,0.0,0.0,0.0,0.0,1006.41,29.3,57.10218,73.608154,57.33623,0.73608154,-3.6451685,-0.08419487,0.0073438985,-4.0425425,0.31145716,-0.1037467,0.12003857,-0.02696401,0.70196533
18:27:25.678;-0.0428645,-0.57912266,8.076357,-0.10131478,0.013192058,0.06613606,7.7268667,-4.2164316,5.964608,309.14722,0.0,0.0,0.0,0.0,1006.41,29.3,57.10218,73.608154,57.33623,0.73608154,-3.6997736,-0.09698224,0.0012679128,-4.1013694,0.30331033,-0.104962476,0.12019687,-0.026170379,0.72332764
18:27:25.688;-0.041953046,-0.58588123,8.07765,-0.10131478,0.013192058,0.06613606,7.727093,-4.2195454,5.9676867,309.13013,0.0,0.0,0.0,0.0,1006.37,29.3,57.43775,73.608154,57.33623,0.73608154,-3.743367,-0.10720724,-0.0035756305,-4.1484084,0.29679587,-0.10597562,0.12032879,-0.025509018,0.7404175
18:27:25.698;-0.041223884,-0.5912881,8.071024,-0.16234994,0.074227214,0.005100906,7.7272744,-4.2220364,5.9701495,309.11646,0.0,0.0,0.0,0.0,1006.37,29.3,57.43775,73.608154,57.33623,0.73608154,-3.7818518,-0.11544302,-0.0074087745,-4.1899834,0.2918615,-0.10743677,0.12099683,-0.024913793,0.75408936
18:27:25.710;-0.04064055,-0.5956136,8.065722,-0.16234994,0.074227214,0.005100906,7.7274194,-4.224029,5.97212,309.10553,0.0,0.0,0.0,0.0,1006.37,29.3,57.43775,73.608154,57.33623,0.73608154,-3.8127162,-0.12205756,-0.010665482,-4.22329,0.28790843,-0.10954732,0.12196179,-0.024847481,0.76501465
18:27:25.719;-0.04017389,-0.599074,8.061481,-0.16234994,0.074227214,0.005100906,7.7275357,-4.225623,5.9736958,309.0968,0.0,0.0,0.0,0.0,1006.37,29.3,57.43775,73.608154,57.33623,0.73608154,-3.8373199,-0.127397,-0.013369514,-4.2499647,0.28474241,-0.111008465,0.12262983,-0.024801573,0.7737427
18:27:25.729;-0.03213911,-0.5941809,8.058088,-0.2233851,-0.23094857,0.005100906,7.746029,-4.2268987,5.956557,309.14716,0.0,0.0,0.0,0.0,1006.43,29.3,56.93572,73.608154,57.33623,0.73608154,-3.8084114,-0.17596193,-0.04423704,-4.217165,0.2279002,-0.11324231,0.12032034,-0.024750564,0.7233887
18:27:25.740;-0.025711289,-0.5902664,8.055374,-0.2233851,-0.23094857,0.005100906,7.7608232,-4.227919,5.9428453,309.1873,0.0,0.0,0.0,0.0,1006.43,29.3,56.93572,73.608154,57.33623,0.73608154,-3.7896516,-0.21506993,-0.054531053,-4.1909,0.18238808,-0.11569955,0.11777991,-0.024694454,0.68325806
18:27:25.750;-0.03589192,-0.5871348,8.053203,-0.16234994,0.013192058,0.005100906,7.772659,-4.2287354,5.931876,309.2193,0.0,0.0,0.0,0.0,1006.43,29.3,56.93572,73.608154,57.33623,0.73608154,-3.7745285,-0.14822671,-0.055593718,-4.1698437,0.25468108,-0.11732305,0.11791183,-0.024643445,0.6512451
18:27:25.761;-0.044036426,-0.5846295,8.051466,-0.16234994,0.013192058,0.005100906,7.7821274,-4.229388,5.923101,309.24487,0.0,0.0,0.0,0.0,1006.43,29.3,56.93572,73.608154,57.33623,0.73608154,-3.7526877,-0.09396312,-0.05287739,-4.152985,0.31254572,-0.1191089,0.118056946,-0.024587335,0.6256714
18:27:25.772;-0.050552033,-0.58262527,8.0500765,-0.16234994,0.013192058,0.005100906,7.789702,-4.229911,5.916081,309.26526,0.0,0.0,0.0,0.0,1006.49,29.3,56.433685,73.608154,57.33623,0.73608154,-3.7351155,-0.050525993,-0.048897177,-4.1394897,0.35885674,-0.12089475,0.11820206,-0.024531225,0.60528564
18:27:25.781;-0.05576452,-0.57336044,8.056626,-0.10131478,0.31836784,-0.05593425,7.7957616,-4.2303286,5.910465,309.2816,0.0,0.0,0.0,0.0,1006.49,29.3,56.433685,73.608154,57.33623,0.73608154,-3.6686563,-0.010566026,-0.0448547,-4.0705695,0.3955701,-0.121806584,0.12106737,-0.024485316,0.58895874
18:27:25.792;-0.059934504,-0.5659486,8.061866,-0.10131478,0.31836784,-0.05593425,7.8006096,-4.230663,5.905972,309.29462,0.0,0.0,0.0,0.0,1006.49,29.3,56.433685,73.608154,57.33623,0.73608154,-3.6151228,0.021249503,-0.041493148,-4.0155053,0.42490175,-0.12292105,0.124569416,-0.025100593,0.57592773
18:27:25.802;-0.063270494,-0.56001914,8.066057,-0.10131478,0.31836784,-0.05593425,7.8044877,-4.2309303,5.9023776,309.30502,0.0,0.0,0.0,0.0,1006.49,29.3,56.433685,73.608154,57.33623,0.73608154,-3.5723257,0.046593606,-0.038779788,-3.9714994,0.44834206,-0.123934194,0.1277531,-0.025659936,0.56552124
18:27:25.811;-0.05827784,-0.5705984,8.054088,-0.040279627,0.31836784,-0.23903972,7.7891903,-4.2311444,5.8995023,309.25668,0.0,0.0,0.0,0.0,1006.47,29.3,56.60015,73.608154,57.33623,0.73608154,-3.6424377,0.008226603,-0.008301644,-4.05229,0.41353762,-0.12429671,0.13061841,-0.026163343,0.6138611
18:27:25.821;-0.05428372,-0.57906187,8.044512,-0.040279627,0.31836784,-0.23903972,7.7769523,-4.2313156,5.897202,309.2179,0.0,0.0,0.0,0.0,1006.47,29.3,56.60015,73.608154,57.33623,0.73608154,-3.7045922,-0.023079544,9.6622854E-4,-4.117083,0.38562372,-0.1246995,0.13380209,-0.028553741,0.6526489
18:27:25.832;-0.051088423,-0.5858326,8.036852,-0.040279627,0.31836784,-0.23903972,7.767162,-4.2314525,5.8953614,309.18683,0.0,0.0,0.0,0.0,1006.47,29.3,56.60015,73.608154,57.33623,0.73608154,-3.7544708,-0.048174173,4.2497274E-4,-4.1690207,0.36324748,-0.12514257,0.13730413,-0.031183178,0.6837158
18:27:25.841;-0.033209294,-0.58358777,8.092015,0.203861,0.013192058,-0.11696941,7.7593293,-4.231562,5.893889,309.1619,0.0,0.0,0.0,0.0,1006.47,29.3,56.60015,73.608154,57.33623,0.73608154,-3.7170763,-0.1606196,-0.00398835,-4.124936,0.23452906,-0.123307824,0.13742286,-0.033334535,0.7086487
18:27:25.851;-0.01890599,-0.5817919,8.136146,0.203861,0.013192058,-0.11696941,7.7530637,-4.23165,5.892711,309.14194,0.0,0.0,0.0,0.0,1006.41,29.3,57.10218,73.608154,57.33623,0.73608154,-3.6969304,-0.2501607,-0.0092670405,-4.0900803,0.13279907,-0.12126921,0.13755478,-0.034504227,0.7286072
18:27:25.862;-0.0074633462,-0.58035517,8.17145,0.203861,0.013192058,-0.11696941,7.748051,-4.23172,5.891769,309.12598,0.0,0.0,0.0,0.0,1006.41,29.3,57.10218,73.608154,57.33623,0.73608154,-3.6810012,-0.32110626,-0.014548618,-4.062455,0.052199267,-0.11902674,0.13769989,-0.03579089,0.7445679
18:27:25.871;-0.03661646,-0.5792058,8.138402,-0.040279627,0.13526237,-0.05593425,7.744041,-4.213376,5.891015,309.2181,0.0,0.0,0.0,0.0,1006.41,29.3,57.10218,73.608154,57.33623,0.73608154,-3.6958718,-0.13804467,-0.0717624,-4.0708055,0.2571342,-0.11938926,0.13891725,-0.036843617,0.6524353
18:27:25.882;-0.059938952,-0.57828635,8.111963,-0.040279627,0.13526237,-0.05593425,7.740833,-4.198701,5.890412,309.292,0.0,0.0,0.0,0.0,1006.41,29.3,57.10218,73.608154,57.33623,0.73608154,-3.6835923,0.011825085,-0.091524206,-4.0774975,0.42227677,-0.11979205,0.14026988,-0.037402958,0.57855225
18:27:25.893;-0.07859694,-0.57755077,8.090813,-0.040279627,0.13526237,-0.05593425,7.7382665,-4.1869607,5.8899293,309.35123,0.0,0.0,0.0,0.0,1006.43,29.3,56.93572,73.608154,57.33623,0.73608154,-3.673433,0.13245028,-0.09438853,-4.082857,0.5551609,-0.12023513,0.14175776,-0.038018234,0.5193176
18:27:25.902;-0.06287755,-0.58462375,8.073893,-0.16234994,0.19629753,-0.11696941,7.736213,-4.1775684,5.8895435,309.39868,0.0,0.0,0.0,0.0,1006.43,29.3,56.93572,73.608154,57.33623,0.73608154,-3.7141483,0.029290408,-0.090182506,-4.141386,0.44503176,-0.12169628,0.14352444,-0.038521644,0.4718628
18:27:25.912;-0.05030204,-0.59028214,8.060356,-0.16234994,0.19629753,-0.11696941,7.7345705,-4.170055,5.889235,309.4367,0.0,0.0,0.0,0.0,1006.43,29.3,56.93572,73.608154,57.33623,0.73608154,-3.7667823,-0.05551818,-0.08400786,-4.1883698,0.3566046,-0.12348213,0.1456837,-0.039808307,0.4338379
18:27:25.922;-0.040241633,-0.5948088,8.049527,-0.16234994,0.19629753,-0.11696941,7.7332563,-4.164044,5.888988,309.46716,0.0,0.0,0.0,0.0,1006.43,29.3,56.93572,73.608154,57.33623,0.73608154,-3.809152,-0.12364903,-0.07766272,-4.22606,0.285655,-0.12494328,0.14745039,-0.040861033,0.40338135
18:27:25.931;-0.032193307,-0.59076875,8.056187,0.02075553,0.13526237,-0.17800456,7.732205,-4.159235,5.8887906,309.49155,0.0,0.0,0.0,0.0,1006.37,29.3,57.43775,73.608154,57.33623,0.73608154,-3.7869623,-0.17305034,-0.072038494,-4.1940203,0.22834517,-0.12473572,0.14880301,-0.042030726,0.3789978
18:27:25.941;-0.025754645,-0.5875367,8.061514,0.02075553,0.13526237,-0.17800456,7.731364,-4.155388,5.8886323,309.51105,0.0,0.0,0.0,0.0,1006.37,29.3,57.43775,73.608154,57.33623,0.73608154,-3.7688634,-0.21244553,-0.067674994,-4.1684213,0.18256174,-0.12452816,0.15015563,-0.04381077,0.35949707
18:27:25.952;-0.020603716,-0.58495104,8.065776,0.02075553,0.13526237,-0.17800456,7.730691,-4.1523104,5.888506,309.52667,0.0,0.0,0.0,0.0,1006.37,29.3,57.43775,73.608154,57.33623,0.73608154,-3.754391,-0.24392527,-0.064445406,-4.1479635,0.14597619,-0.124320604,0.15150826,-0.045590814,0.34387207
18:27:25.961;-0.016482973,-0.590544,8.061524,-0.16234994,0.19629753,-0.17800456,7.7301526,-4.1498485,5.888405,309.53918,0.0,0.0,0.0,0.0,1006.37,29.3,57.43775,73.608154,57.33623,0.73608154,-3.7952747,-0.27417842,-0.062164236,-4.1896887,0.11683643,-0.12594411,0.15347123,-0.04737086,0.33135986
18:27:25.972;-0.013186378,-0.5950183,8.058123,-0.16234994,0.19629753,-0.17800456,7.729722,-4.1478786,5.888324,309.5492,0.0,0.0,0.0,0.0,1006.37,29.3,57.43775,73.608154,57.33623,0.73608154,-3.8283672,-0.2984863,-0.06066245,-4.223097,0.09350464,-0.1275676,0.1554342,-0.049150903,0.3213501
18:27:25.982;-0.010549103,-0.59859776,8.055402,-0.16234994,0.19629753,-0.17800456,7.7293777,-4.1463027,5.888259,309.5572,0.0,0.0,0.0,0.0,1006.37,29.3,57.43775,73.608154,57.33623,0.73608154,-3.8548675,-0.3179467,-0.0597945,-4.2498407,0.07482641,-0.1291911,0.15739718,-0.050930947,0.3133545
18:27:25.991;-0.023762174,-0.5937999,8.053225,-0.16234994,-0.0478431,-0.11696941,7.7107024,-4.163442,5.906607,309.4007,0.0,0.0,0.0,0.0,1006.37,29.3,57.43775,73.53904,57.33554,0.7353904,-3.8272765,-0.23103455,0.021994324,-4.217022,0.16860108,-0.1308146,0.15691875,-0.05271099,0.46984863
18:27:26.002;-0.03433263,-0.5899616,8.051483,-0.16234994,-0.0478431,-0.11696941,7.695762,-4.1771536,5.9212856,309.27533,0.0,0.0,0.0,0.0,1006.37,29.3,57.43775,73.53904,57.33554,0.7353904,-3.7949514,-0.16025166,0.04668144,-4.190744,0.24366236,-0.13260044,0.15639247,-0.053997654,0.59521484
18:27:26.014;-0.042788994,-0.58689094,8.05009,-0.16234994,-0.0478431,-0.11696941,7.6838098,-4.1881227,5.9330287,309.17487,0.0,0.0,0.0,0.0,1006.41,29.3,57.10218,73.53904,57.33554,0.7353904,-3.7689562,-0.10358906,0.045872007,-4.169707,0.30373776,-0.13454863,0.15581836,-0.055401288,0.6956787
18:27:26.022;-0.04189264,-0.58443445,8.064299,-0.040279627,0.074227214,-0.17800456,7.6742477,-4.1968985,5.942423,309.09442,0.0,0.0,0.0,0.0,1006.41,29.3,57.10218,73.53904,57.33554,0.7353904,-3.7409115,-0.10686481,0.034989648,-4.145027,0.29686046,-0.1348306,0.15633795,-0.056337044,0.77612305
18:27:26.033;-0.04117556,-0.5824692,8.075665,-0.040279627,0.074227214,-0.17800456,7.6665983,-4.203919,5.9499383,309.03,0.0,0.0,0.0,0.0,1006.41,29.3,57.10218,73.53904,57.33554,0.7353904,-3.723545,-0.11002728,0.02055858,-4.1253448,0.29137573,-0.13531394,0.15722868,-0.058295093,0.84054565
18:27:26.044;-0.040601894,-0.58089703,8.084759,-0.040279627,0.074227214,-0.17800456,7.6604786,-4.209535,5.9559507,308.97845,0.0,0.0,0.0,0.0,1006.41,29.3,57.10218,73.53904,57.33554,0.7353904,-3.7097213,-0.112591535,0.0059248134,-4.109638,0.2869988,-0.13575701,0.15804517,-0.060253143,0.89208984
18:27:26.053;-0.032481514,-0.5796393,8.076711,-0.3454554,0.25733268,0.12717122,7.673983,-4.232428,5.9423604,308.88977,0.0,0.0,0.0,0.0,1006.31,29.3,57.93978,73.608154,57.33623,0.73608154,-3.705945,-0.16351603,0.016376855,-4.1048613,0.22982988,-0.13886611,0.16036117,-0.061855186,0.9807739
18:27:26.063;-0.025985211,-0.5786331,8.070272,-0.3454554,0.25733268,0.12717122,7.6847863,-4.2507424,5.9314885,308.8192,0.0,0.0,0.0,0.0,1006.31,29.3,57.93978,73.608154,57.33623,0.73608154,-3.707624,-0.20489442,0.013175011,-4.10103,0.18401183,-0.14232066,0.1629345,-0.060583472,1.0513306
18:27:26.075;-0.020788169,-0.57782817,8.065122,-0.3454554,0.25733268,0.12717122,7.693429,-4.2653937,5.922791,308.76294,0.0,0.0,0.0,0.0,1006.31,29.3,57.93978,73.608154,57.33623,0.73608154,-3.7090666,-0.23802407,0.0051960032,-4.0979586,0.14730422,-0.14646612,0.1660225,-0.05905742,1.107605
18:27:26.084;-0.024291981,-0.5925071,8.053339,-0.10131478,0.379403,0.005100906,7.700343,-4.277115,5.915833,308.71808,0.0,0.0,0.0,0.0,1006.31,29.3,57.93978,73.608154,57.33623,0.73608154,-3.810926,-0.22562729,-0.003928017,-4.2078137,0.17235982,-0.14737795,0.16943713,-0.05791288,1.1524658
18:27:26.096;-0.027095031,-0.60425025,8.043913,-0.10131478,0.379403,0.005100906,7.7058744,-4.286492,5.9102664,308.68225,0.0,0.0,0.0,0.0,1006.43,29.3,56.93572,73.608154,57.33623,0.73608154,-3.8889997,-0.2152383,-0.012976024,-4.295906,0.19245155,-0.14859372,0.17398997,-0.05785167,1.1882935
18:27:26.106;-0.02933747,-0.6136448,8.036372,-0.10131478,0.379403,0.005100906,7.7102995,-4.2939935,5.905813,308.65366,0.0,0.0,0.0,0.0,1006.43,29.3,56.93572,73.608154,57.33623,0.73608154,-3.9514873,-0.20706971,-0.021090856,-4.3665137,0.20855515,-0.14960687,0.177784,-0.057800658,1.2168884
18:27:26.118;-0.03113142,-0.6058375,8.045663,-0.040279627,-0.23094857,0.005100906,7.7138395,-4.299995,5.902251,308.63083,0.0,0.0,0.0,0.0,1006.43,29.3,56.93572,73.608154,57.33623,0.73608154,-3.8963416,-0.1909483,-0.028001577,-4.306207,0.22107,-0.15009022,0.17501262,-0.057739448,1.2397156
18:27:26.127;-0.03256658,-0.5995917,8.053095,-0.040279627,-0.23094857,0.005100906,7.7166715,-4.3047957,5.8994007,308.61258,0.0,0.0,0.0,0.0,1006.43,29.3,56.93572,73.608154,57.33623,0.73608154,-3.8513808,-0.17738983,-0.033722803,-4.258055,0.23106235,-0.15045273,0.17293409,-0.05769354,1.2579651
18:27:26.137;-0.03371471,-0.594595,8.059041,-0.040279627,-0.23094857,0.005100906,7.7189374,-4.3086367,5.8971205,308.598,0.0,0.0,0.0,0.0,1006.43,29.3,56.93572,73.608154,57.33623,0.73608154,-3.815413,-0.16663289,-0.038388968,-4.219593,0.23904374,-0.15085553,0.1706246,-0.05764253,1.2725525
18:27:26.147;-0.034633216,-0.59825915,8.071459,0.02075553,0.013192058,-0.05593425,7.72075,-4.293309,5.8952966,308.69052,0.0,0.0,0.0,0.0,1006.43,29.3,56.93572,73.608154,57.33623,0.73608154,-3.8317347,-0.1625054,-0.094254896,-4.2389913,0.24517211,-0.15064797,0.17075652,-0.05759152,1.1800232
18:27:26.157;-0.035368018,-0.60119045,8.081393,0.02075553,0.013192058,-0.05593425,7.7222,-4.2810473,5.8938375,308.76462,0.0,0.0,0.0,0.0,1006.43,29.3,56.93572,73.608154,57.33623,0.73608154,-3.8452492,-0.15945686,-0.11325122,-4.254466,0.25006098,-0.15044041,0.17088844,-0.05815086,1.1059265
18:27:26.167;-0.03595586,-0.6035355,8.089341,0.02075553,0.013192058,-0.05593425,7.72336,-4.271238,5.89267,308.82397,0.0,0.0,0.0,0.0,1006.43,29.3,56.93572,73.608154,57.33623,0.73608154,-3.856061,-0.15702595,-0.11565905,-4.266818,0.2539633,-0.15023285,0.17102036,-0.058710203,1.0465698
18:27:26.177;-0.036426134,-0.5671043,8.080377,0.02075553,0.13526237,0.06613606,7.724288,-4.2633905,5.891736,308.8715,0.0,0.0,0.0,0.0,1006.43,29.3,56.93572,73.608154,57.33623,0.73608154,-3.6287863,-0.1308562,-0.11122224,-4.0145607,0.25765243,-0.1500253,0.17237298,-0.059269544,0.99905396
18:27:26.187;-0.03680235,-0.53795934,8.073205,0.02075553,0.13526237,0.06613606,7.7250304,-4.2571125,5.890989,308.90952,0.0,0.0,0.0,0.0,1006.49,29.3,56.433685,73.608154,57.33623,0.73608154,-3.4440794,-0.10972582,-0.10392766,-3.8122385,0.26060766,-0.14981773,0.1737256,-0.05860818,0.96102905
18:27:26.197;-0.037103325,-0.5146434,8.067468,0.02075553,0.13526237,0.06613606,7.7256246,-4.25209,5.890391,308.93997,0.0,0.0,0.0,0.0,1006.49,29.3,56.433685,73.608154,57.33623,0.73608154,-3.295999,-0.09278779,-0.09616551,-3.6500525,0.2629743,-0.14961018,0.17507823,-0.05794682,0.9305725
18:27:26.207;-0.0143597685,-0.52663636,8.093523,-0.2233851,0.25733268,0.005100906,7.6524997,-4.376872,5.908313,308.00027,0.0,0.0,0.0,0.0,1006.49,29.3,56.433685,73.608154,57.33623,0.73608154,-3.3601277,-0.24445832,0.39312315,-3.7229173,0.10144124,-0.15184402,0.17765155,-0.057285458,1.8702698
18:27:26.217;0.0038350765,-0.53623074,8.1143675,-0.2233851,0.25733268,0.005100906,7.594,-4.4766974,5.9226503,307.2483,0.0,0.0,0.0,0.0,1006.49,29.3,56.433685,73.608154,57.33623,0.73608154,-3.4274275,-0.366804,0.5439362,-3.7808428,-0.027020644,-0.15407787,0.18022488,-0.057234447,2.6222534
18:27:26.227;0.018390954,-0.5439063,8.131043,-0.2233851,0.25733268,0.005100906,7.5471997,-4.556558,5.93412,306.6467,0.0,0.0,0.0,0.0,1006.43,29.3,56.93572,73.608154,57.33623,0.73608154,-3.4811587,-0.46423173,0.54417294,-3.82695,-0.12930353,-0.15631172,0.1827982,-0.057183437,3.2238464
18:27:26.239;-6.1012805E-4,-0.58069247,8.1214,0.203861,-0.0478431,0.18820637,7.50976,-4.6204467,5.9432964,306.16553,0.0,0.0,0.0,0.0,1006.43,29.3,56.93572,73.608154,57.33623,0.73608154,-3.7269764,-0.36889094,0.4841107,-4.0897756,0.00429344,-0.15386538,0.1822241,-0.057122227,3.705017
18:27:26.247;-0.015810993,-0.6101214,8.113685,0.203861,-0.0478431,0.18820637,7.479808,-4.6715574,5.9506373,305.78073,0.0,0.0,0.0,0.0,1006.43,29.3,56.93572,73.608154,57.33623,0.73608154,-3.9070373,-0.2905389,0.40664515,-4.300346,0.11133679,-0.1522345,0.18184134,-0.055616576,4.089813
18:27:26.257;-0.027971685,-0.6336646,8.107512,0.203861,-0.0478431,0.18820637,7.4558463,-4.7124457,5.95651,305.473,0.0,0.0,0.0,0.0,1006.43,29.3,56.93572,73.608154,57.33623,0.73608154,-4.0509458,-0.22777574,0.33032495,-4.4689956,0.19707407,-0.15019588,0.18136291,-0.05373451,4.3975525
18:27:26.267;-0.03770024,-0.6371763,8.117898,-0.3454554,-0.23094857,0.005100906,7.547077,-4.7819567,5.942808,305.40878,0.0,0.0,0.0,0.0,1006.41,29.3,57.10218,73.608154,57.33623,0.73608154,-4.0622454,-0.16771346,0.17134075,-4.4879136,0.26526892,-0.15365043,0.17905343,-0.051852446,4.4617615
18:27:26.277;-0.045483083,-0.6399856,8.126206,-0.3454554,-0.23094857,0.005100906,7.620062,-4.8375654,5.9318466,305.35855,0.0,0.0,0.0,0.0,1006.41,29.3,57.10218,73.608154,57.33623,0.73608154,-4.069824,-0.11948681,0.08488563,-4.503008,0.3196962,-0.15710498,0.17674394,-0.051801436,4.5119934
18:27:26.287;-0.051709358,-0.6422331,8.132853,-0.3454554,-0.23094857,0.005100906,7.6784496,-4.8820524,5.923077,305.31912,0.0,0.0,0.0,0.0,1006.41,29.3,57.10218,73.608154,57.33623,0.73608154,-4.075846,-0.080975205,0.03628196,-4.515058,0.36315593,-0.16055954,0.17443445,-0.051750425,4.551422
18:27:26.298;-0.03370604,-0.65169245,8.130508,-0.10131478,-0.16991341,0.005100906,7.7251596,-4.917642,5.916062,305.28802,0.0,0.0,0.0,0.0,1006.41,29.3,57.10218,73.608154,57.33623,0.73608154,-4.132581,-0.20033854,0.007839978,-4.5826473,0.23676611,-0.16157268,0.17273532,-0.051699415,4.5825195
18:27:26.308;-0.019303385,-0.65926,8.1286335,-0.10131478,-0.16991341,0.005100906,7.762528,-4.9461136,5.9104495,305.26343,0.0,0.0,0.0,0.0,1006.43,29.3,56.93572,73.608154,57.33623,0.73608154,-4.1931953,-0.29745117,-0.009603079,-4.636722,0.13561699,-0.16268714,0.17086627,-0.051643305,4.6071167
18:27:26.318;-0.0077812625,-0.665314,8.127133,-0.10131478,-0.16991341,0.005100906,7.7924223,-4.9688907,5.9059596,305.24393,0.0,0.0,0.0,0.0,1006.43,29.3,56.93572,73.608154,57.33623,0.73608154,-4.2418323,-0.3751461,-0.02084732,-4.679984,0.0546745,-0.16370028,0.16916713,-0.051592294,4.6266174
18:27:26.328;-0.013886455,-0.64717287,8.118272,-0.10131478,0.13526237,0.005100906,7.9083376,-4.876713,5.9391675,306.10757,0.0,0.0,0.0,0.0,1006.43,29.3,56.93572,73.608154,57.33623,0.73608154,-4.1396923,-0.32590804,-0.46801803,-4.5578628,0.09769547,-0.16471343,0.17051975,-0.051541284,3.76297
18:27:26.337;-0.018770609,-0.63266,8.111182,-0.10131478,0.13526237,0.005100906,8.00107,-4.8029704,5.965734,306.7918,0.0,0.0,0.0,0.0,1006.43,29.3,56.93572,73.608154,57.33623,0.73608154,-4.0466204,-0.28558275,-0.60187656,-4.459943,0.13219012,-0.16552395,0.17160185,-0.051500477,3.0787354
18:27:26.348;-0.022677932,-0.62104964,8.105511,-0.10131478,0.13526237,0.005100906,8.075256,-4.7439766,5.986987,307.33484,0.0,0.0,0.0,0.0,1006.43,29.3,56.93572,73.608154,57.33623,0.73608154,-3.9719965,-0.25318533,-0.5981728,-4.381463,0.15983559,-0.16673972,0.173225,-0.051439267,2.5357056
18:27:26.358;-0.041126683,-0.6270843,8.100973,-0.10131478,0.19629753,-0.05593425,8.134605,-4.696781,6.0039897,307.76642,0.0,0.0,0.0,0.0,1006.43,29.3,56.93572,73.608154,57.33623,0.73608154,-4.0090876,-0.13970637,-0.5405703,-4.4262977,0.2900068,-0.16775286,0.17518798,-0.051388256,2.104126
18:27:26.371;-0.055885684,-0.63191205,8.097343,-0.10131478,0.19629753,-0.05593425,8.182084,-4.659025,6.017592,308.10986,0.0,0.0,0.0,0.0,1006.43,29.3,56.93572,73.608154,57.33623,0.73608154,-4.0300646,-0.04793966,-0.46806526,-4.46218,0.39423513,-0.16906996,0.17773984,-0.052115403,1.7606812
18:27:26.382;-0.06769288,-0.6357742,8.0944395,-0.10131478,0.19629753,-0.05593425,8.220067,-4.6288204,6.0284734,308.38342,0.0,0.0,0.0,0.0,1006.43,29.3,56.93572,73.608154,57.33623,0.73608154,-4.046711,0.02545306,-0.39717776,-4.4908953,0.47767586,-0.17018442,0.17989911,-0.05273068,1.4871216
18:27:26.391;-0.0694772,-0.62354106,8.0844555,0.02075553,0.13526237,0.06613606,8.103253,-4.5494566,5.981979,308.45642,0.0,0.0,0.0,0.0,1006.29,29.3,58.106247,73.608154,57.33623,0.73608154,-3.9666495,0.045289725,-0.26170495,-4.4102373,0.49092552,-0.16999762,0.18111648,-0.05323409,1.4141235
18:27:26.401;-0.07090465,-0.6137545,8.0764675,0.02075553,0.13526237,0.06613606,8.009803,-4.4859653,5.944783,308.51642,0.0,0.0,0.0,0.0,1006.29,29.3,58.106247,73.608154,57.33623,0.73608154,-3.90645,0.0608854,-0.18713762,-4.3455553,0.5015502,-0.16979006,0.1824691,-0.052572727,1.354126
18:27:26.411;-0.07204661,-0.60592526,8.070078,0.02075553,0.13526237,0.06613606,7.9350424,-4.435172,5.9150267,308.56546,0.0,0.0,0.0,0.0,1006.29,29.3,58.106247,73.608154,57.33623,0.73608154,-3.8582287,0.07337165,-0.14404537,-4.293709,0.51006585,-0.1695825,0.18382172,-0.051911365,1.3050842
18:27:26.422;-0.06529873,-0.60732335,8.064966,-0.3454554,-0.0478431,0.005100906,7.875234,-4.394538,5.8912215,308.60544,0.0,0.0,0.0,0.0,1006.29,29.3,58.106247,73.608154,57.33623,0.73608154,-3.868737,0.029396266,-0.11760363,-4.306327,0.46258065,-0.1733825,0.18329544,-0.05118387,1.2651062
18:27:26.432;-0.05990043,-0.6084418,8.060877,-0.3454554,-0.0478431,0.005100906,7.8273873,-4.3620305,5.872177,308.63785,0.0,0.0,0.0,0.0,1006.35,29.3,57.604214,73.608154,57.33623,0.73608154,-3.8821929,-0.0061722696,-0.10057308,-4.31643,0.42454985,-0.17683706,0.18281701,-0.051132858,1.2326965
18:27:26.443;-0.05558179,-0.6093366,8.057605,-0.3454554,-0.0478431,0.005100906,7.7891097,-4.3360243,5.8569417,308.6641,0.0,0.0,0.0,0.0,1006.35,29.3,57.604214,73.608154,57.33623,0.73608154,-3.8930645,-0.03467101,-0.088947475,-4.324519,0.39409786,-0.18063706,0.18229073,-0.051076747,1.2064514
18:27:26.453;-0.06744977,-0.59472954,8.047326,-0.040279627,0.25733268,-0.17800456,7.648088,-4.4072194,5.8815536,307.81506,0.0,0.0,0.0,0.0,1006.35,29.3,57.604214,73.608154,57.33623,0.73608154,-3.8074067,0.0505403,0.35452816,-4.226555,0.47891518,-0.18103985,0.18486406,-0.051025737,2.055481
18:27:26.464;-0.07694415,-0.5830439,8.039103,-0.040279627,0.25733268,-0.17800456,7.53527,-4.4641757,5.901243,307.12372,0.0,0.0,0.0,0.0,1006.35,29.3,57.604214,73.608154,57.33623,0.73608154,-3.7281728,0.11971018,0.49644482,-4.1479807,0.54693824,-0.18148293,0.18769471,-0.052983787,2.7468262
18:27:26.475;-0.08453966,-0.57369536,8.032524,-0.040279627,0.25733268,-0.17800456,7.4450164,-4.509741,5.9169946,306.56287,0.0,0.0,0.0,0.0,1006.43,29.3,56.93572,73.608154,57.33623,0.73608154,-3.6645656,0.17514488,0.5011775,-4.0849915,0.60146487,-0.181926,0.19052537,-0.054941837,3.3076782
18:27:26.485;-0.082954615,-0.5815394,8.057907,-0.2233851,0.25733268,-0.30007488,7.372813,-4.5461926,5.929596,306.1092,0.0,0.0,0.0,0.0,1006.43,29.3,56.93572,73.608154,57.33623,0.73608154,-3.6976056,0.15996525,0.44906497,-4.127663,0.5882983,-0.18415985,0.1930987,-0.05672188,3.7613525
18:27:26.495;-0.081686586,-0.5878146,8.078214,-0.2233851,0.25733268,-0.30007488,7.3150506,-4.575354,5.939677,305.743,0.0,0.0,0.0,0.0,1006.43,29.3,56.93572,73.608154,57.33623,0.73608154,-3.7296708,0.14733309,0.3777614,-4.1616044,0.57782537,-0.1863937,0.19567202,-0.05972263,4.127533
18:27:26.505;-0.08067216,-0.59283483,8.094459,-0.2233851,0.25733268,-0.30007488,7.2688403,-4.5986834,5.9477415,305.44803,0.0,0.0,0.0,0.0,1006.43,29.3,56.93572,73.608154,57.33623,0.73608154,-3.7552598,0.1372681,0.30501044,-4.188633,0.5694853,-0.18862754,0.19824535,-0.062723376,4.422516
18:27:26.515;-0.07219917,-0.60451245,8.099793,-0.040279627,0.013192058,0.12717122,7.231872,-4.617347,5.954193,305.21072,0.0,0.0,0.0,0.0,1006.47,29.3,56.60015,73.608154,57.33623,0.73608154,-3.8275836,0.07561386,0.2382955,-4.268078,0.50928783,-0.18903033,0.19837727,-0.06572413,4.6598206
18:27:26.525;-0.065420784,-0.6138545,8.104061,-0.040279627,0.013192058,0.12717122,7.2022977,-4.6322775,5.9593544,305.02005,0.0,0.0,0.0,0.0,1006.47,29.3,56.60015,73.608154,57.33623,0.73608154,-3.8908687,0.026001185,0.18225846,-4.3315444,0.46119434,-0.18943313,0.19850919,-0.06445242,4.8504944
18:27:26.535;-0.059998073,-0.6213282,8.107475,-0.040279627,0.013192058,0.12717122,7.178638,-4.6442223,5.963484,304.86694,0.0,0.0,0.0,0.0,1006.47,29.3,56.60015,73.608154,57.33623,0.73608154,-3.941474,-0.013649434,0.13609222,-4.38226,0.4227609,-0.18983592,0.1986411,-0.06318071,5.003601
18:27:26.545;-0.07098279,-0.6119842,8.087222,-0.16234994,0.25733268,0.18820637,7.2885103,-4.727378,5.948387,304.8001,0.0,0.0,0.0,0.0,1006.47,29.3,56.60015,73.608154,57.33623,0.73608154,-3.896123,0.061947614,0.07050836,-4.3273287,0.5014473,-0.19145942,0.20121443,-0.061908994,5.0704346
18:27:26.555;-0.07977057,-0.60450906,8.07102,-0.16234994,0.25733268,0.18820637,7.376408,-4.7939024,5.93631,304.7481,0.0,0.0,0.0,0.0,1006.43,29.3,56.93572,73.608154,57.33623,0.73608154,-3.848824,0.12359357,0.031241693,-4.283174,0.5646874,-0.19308291,0.20378776,-0.06002693,5.1224365
18:27:26.565;-0.08680079,-0.5985289,8.058058,-0.16234994,0.25733268,0.18820637,7.4467263,-4.8471217,5.9266477,304.70746,0.0,0.0,0.0,0.0,1006.43,29.3,56.93572,73.608154,57.33623,0.73608154,-3.8107476,0.17310253,0.0068731215,-4.2477164,0.61546665,-0.19470641,0.20636109,-0.058144864,5.163086
18:27:26.575;-0.061779186,-0.5937448,8.063011,-0.040279627,0.13526237,-0.30007488,7.502981,-4.8896976,5.918918,304.6755,0.0,0.0,0.0,0.0,1006.43,29.3,56.93572,73.608154,57.33623,0.73608154,-3.7730148,0.016861945,-0.0087188855,-4.2114277,0.4378091,-0.1951092,0.20771371,-0.0562628,5.195038
18:27:26.585;-0.041761905,-0.58991754,8.066974,-0.040279627,0.13526237,-0.30007488,7.547985,-4.923758,5.9127345,304.6503,0.0,0.0,0.0,0.0,1006.43,29.3,56.93572,73.608154,57.33623,0.73608154,-3.7625105,-0.109876126,-0.021387456,-4.182396,0.29582188,-0.195512,0.20906633,-0.059263546,5.2202454
18:27:26.595;-0.025748078,-0.5868557,8.070144,-0.040279627,0.13526237,-0.30007488,7.583988,-4.9510064,5.907788,304.63037,0.0,0.0,0.0,0.0,1006.41,29.3,57.10218,73.608154,57.33623,0.73608154,-3.7542813,-0.21120293,-0.031861886,-4.1591706,0.18232216,-0.19591479,0.21041895,-0.062264293,5.2401733
18:27:26.605;-0.028259907,-0.5767448,8.057357,-0.16234994,0.013192058,-0.5442155,7.7047906,-4.844005,5.9406304,305.61023,0.0,0.0,0.0,0.0,1006.41,29.3,57.10218,73.608154,57.33623,0.73608154,-3.706079,-0.1901967,-0.5384927,-4.0942183,0.20044224,-0.19753829,0.21055087,-0.065265045,4.260315
18:27:26.615;-0.030269371,-0.5686561,8.047128,-0.16234994,0.013192058,-0.5442155,7.8014326,-4.7584043,5.966904,306.38715,0.0,0.0,0.0,0.0,1006.41,29.3,57.10218,73.608154,57.33623,0.73608154,-3.6570718,-0.17221051,-0.6930582,-4.0421,0.21498168,-0.19916178,0.2106828,-0.0707072,3.4833984
18:27:26.625;-0.031876944,-0.5621851,8.038944,-0.16234994,0.013192058,-0.5442155,7.878746,-4.6899233,5.987923,307.00406,0.0,0.0,0.0,0.0,1006.41,29.3,57.10218,73.608154,57.33623,0.73608154,-3.6176574,-0.1577756,-0.6930602,-4.0003047,0.22664109,-0.20078528,0.21081471,-0.07614936,2.8664856
18:27:26.635;-0.040824447,-0.5646698,8.055382,-0.040279627,0.074227214,0.12717122,7.940597,-4.6351385,6.0047383,307.49457,0.0,0.0,0.0,0.0,1006.29,29.3,58.106247,73.608154,57.33623,0.73608154,-3.6245794,-0.10168961,-0.63258034,-4.009735,0.28966013,-0.20118807,0.21155699,-0.08159152,2.3759766
18:27:26.645;-0.047982447,-0.5666575,8.068532,-0.040279627,0.074227214,0.12717122,7.990078,-4.591311,6.018191,307.885,0.0,0.0,0.0,0.0,1006.29,29.3,58.106247,73.608154,57.33623,0.73608154,-3.6257317,-0.05659896,-0.55167097,-4.017247,0.3398889,-0.20159087,0.21229926,-0.08031981,1.9855347
18:27:26.658;-0.053708848,-0.5682477,8.079052,-0.040279627,0.074227214,0.12717122,8.029662,-4.5562487,6.0289526,308.19608,0.0,0.0,0.0,0.0,1006.29,29.3,58.106247,73.608154,57.33623,0.73608154,-3.626626,-0.020608276,-0.4707016,-4.0232377,0.37995318,-0.20211451,0.21326421,-0.07866658,1.674469
18:27:26.666;-0.050628524,-0.5695198,8.072145,-0.16234994,0.074227214,0.12717122,7.93253,-4.472999,6.000762,308.35,0.0,0.0,0.0,0.0,1006.29,29.3,58.106247,73.608154,57.33623,0.73608154,-3.6342711,-0.040757954,-0.3512043,-4.035663,0.35846356,-0.20325096,0.2137838,-0.07777639,1.5205383
18:27:26.677;-0.048164263,-0.5705375,8.06662,-0.16234994,0.074227214,0.12717122,7.854824,-4.4063993,5.9782095,308.47626,0.0,0.0,0.0,0.0,1006.43,29.3,56.93572,73.608154,57.33623,0.73608154,-3.6453109,-0.057328254,-0.2769165,-4.0456185,0.34124577,-0.2050368,0.2146003,-0.0763775,1.3942871
18:27:26.687;-0.046192855,-0.5713517,8.0622,-0.16234994,0.074227214,0.12717122,7.7926593,-4.3531194,5.9601674,308.5793,0.0,0.0,0.0,0.0,1006.43,29.3,56.93572,73.608154,57.33623,0.73608154,-3.654128,-0.0706293,-0.22754008,-4.053592,0.32745478,-0.2066603,0.21534257,-0.075105794,1.2912292
18:27:26.697;-0.036954284,-0.57966447,8.073986,-0.040279627,-0.108878255,0.3102767,7.7429276,-4.3104954,5.945734,308.6631,0.0,0.0,0.0,0.0,1006.43,29.3,56.93572,73.608154,57.33623,0.73608154,-3.7028718,-0.13498737,-0.19257246,-4.1064095,0.26156524,-0.2070631,0.21425378,-0.073834084,1.2074585
18:27:26.707;-0.029563427,-0.5863147,8.083415,-0.040279627,-0.108878255,0.3102767,7.703142,-4.2763963,5.9341874,308.731,0.0,0.0,0.0,0.0,1006.43,29.3,56.93572,73.608154,57.33623,0.73608154,-3.747233,-0.18674527,-0.16544756,-4.1485443,0.20899755,-0.20750616,0.21305612,-0.07042104,1.1395569
18:27:26.717;-0.023650741,-0.59163487,8.090959,-0.040279627,-0.108878255,0.3102767,7.671314,-4.249117,5.92495,308.7859,0.0,0.0,0.0,0.0,1006.43,29.3,56.93572,73.608154,57.33623,0.73608154,-3.7826693,-0.22803319,-0.14398861,-4.182176,0.16703527,-0.20786868,0.21207622,-0.06762855,1.0846558
18:27:26.727;-0.026582038,-0.5729067,8.096993,0.081790686,0.6845788,-0.17800456,7.553851,-4.3376937,5.95436,307.90182,0.0,0.0,0.0,0.0,1006.43,29.3,56.93572,73.608154,57.33623,0.73608154,-3.6652226,-0.19697113,0.33777466,-4.0472236,0.18762952,-0.20705077,0.218922,-0.06452578,1.9687195
18:27:26.737;-0.028927077,-0.55792415,8.101821,0.081790686,0.6845788,-0.17800456,7.459881,-4.408555,5.977888,307.18607,0.0,0.0,0.0,0.0,1006.43,29.3,56.93572,73.608154,57.33623,0.73608154,-3.5650442,-0.17207305,0.49352503,-3.9393747,0.20408702,-0.20615107,0.22645237,-0.06648383,2.6844788
18:27:26.747;-0.030803107,-0.54593813,8.105683,0.081790686,0.6845788,-0.17800456,7.3847046,-4.4652443,5.9967103,306.6081,0.0,0.0,0.0,0.0,1006.43,29.3,56.93572,73.608154,57.33623,0.73608154,-3.4849763,-0.15229581,0.5016168,-3.8531675,0.2172414,-0.20533316,0.23329815,-0.06826388,3.2624512
18:27:26.757;-0.10125694,-0.54401076,8.085789,0.02075553,0.379403,-0.17800456,7.3245635,-4.5105953,6.0117683,306.14233,0.0,0.0,0.0,0.0,1006.49,29.3,56.433685,73.608154,57.33623,0.73608154,-3.4790843,0.2967355,0.44866607,-3.8487506,0.71584946,-0.2051256,0.23709218,-0.07004393,3.7282104
18:27:26.768;-0.15762,-0.54246885,8.069873,0.02075553,0.379403,-0.17800456,7.2764506,-4.5468764,6.0238147,305.76758,0.0,0.0,0.0,0.0,1006.49,29.3,56.433685,73.608154,57.33623,0.73608154,-3.4307952,0.6621289,0.37570998,-3.8449907,1.1164346,-0.20489728,0.24126561,-0.07200198,4.1029663
18:27:26.779;-0.15674178,-0.5565582,8.095448,0.02075553,-0.108878255,-0.36111003,7.3851604,-4.631101,5.9966516,305.67673,0.0,0.0,0.0,0.0,1006.49,29.3,56.433685,73.608154,57.33623,0.73608154,-3.4726853,0.64854705,0.19630039,-3.9321346,1.1065948,-0.20466897,0.24006794,-0.07396003,4.193817
18:27:26.790;-0.15603921,-0.56782967,8.115908,0.02075553,-0.108878255,-0.36111003,7.4721284,-4.698481,5.974921,305.6061,0.0,0.0,0.0,0.0,1006.49,29.3,56.433685,73.608154,57.33623,0.73608154,-3.5364196,0.6351287,0.09449291,-4.0014415,1.0987672,-0.20444065,0.23887028,-0.07793224,4.264435
18:27:26.801;-0.15547715,-0.57684684,8.132276,0.02075553,-0.108878255,-0.36111003,7.5417027,-4.752385,5.957537,305.55084,0.0,0.0,0.0,0.0,1006.49,29.3,56.433685,73.608154,57.33623,0.73608154,-3.5874293,0.6244172,0.0339279,-4.0566278,1.0925332,-0.20421234,0.23767261,-0.08190445,4.319702
18:27:26.810;-0.16268894,-0.57639915,8.130047,-0.2233851,0.19629753,0.12717122,7.5973625,-4.7955084,5.9436297,305.50742,0.0,0.0,0.0,0.0,1006.49,29.3,56.433685,73.608154,57.33623,0.73608154,-3.5868335,0.67065513,-0.0039000101,-4.054527,1.1435132,-0.2062228,0.2394393,-0.08515444,4.3631287
18:27:26.822;-0.16845837,-0.576041,8.128263,-0.2233851,0.19629753,0.12717122,7.64189,-4.8300066,5.9325037,305.47314,0.0,0.0,0.0,0.0,1006.49,29.3,56.433685,73.608154,57.33623,0.73608154,-3.580739,0.70802677,-0.026692161,-4.052843,1.1843164,-0.20868003,0.24159856,-0.08375555,4.3974
18:27:26.832;-0.17307392,-0.57575446,8.126837,-0.2233851,0.19629753,0.12717122,7.677512,-4.8576055,5.923603,305.44604,0.0,0.0,0.0,0.0,1006.49,29.3,56.433685,73.608154,57.33623,0.73608154,-3.5757883,0.737911,-0.04097461,-4.0514946,1.216971,-0.21113726,0.24375783,-0.08235667,4.4244995
18:27:26.841;-0.15378202,-0.59084815,8.133357,-0.040279627,0.13526237,-0.17800456,7.76121,-4.7508845,5.9348826,306.2957,0.0,0.0,0.0,0.0,1006.47,29.3,56.60015,73.608154,57.33623,0.73608154,-3.6650398,0.6059316,-0.4859133,-4.1542163,1.0803487,-0.21149978,0.2449752,-0.081212126,3.5748596
18:27:26.851;-0.1383485,-0.6029231,8.138574,-0.040279627,0.13526237,-0.17800456,7.828168,-4.665508,5.9439063,306.97333,0.0,0.0,0.0,0.0,1006.47,29.3,56.60015,73.608154,57.33623,0.73608154,-3.752068,0.49902865,-0.62327415,-4.2362456,0.97122246,-0.21190257,0.24632782,-0.082992174,2.8972168
18:27:26.862;-0.1260017,-0.61258304,8.142747,-0.040279627,0.13526237,-0.17800456,7.8817344,-4.597206,5.951125,307.51395,0.0,0.0,0.0,0.0,1006.47,29.3,56.60015,73.53904,57.33554,0.7353904,-3.8217375,0.4136041,-0.6244216,-4.3017735,0.8840323,-0.21234564,0.2478157,-0.08495022,2.356598
18:27:26.873;-0.1084628,-0.61264956,8.107779,-0.16234994,0.19629753,-0.30007488,7.9245877,-4.542565,5.9569,307.94543,0.0,0.0,0.0,0.0,1006.47,29.3,56.60015,73.53904,57.33554,0.7353904,-3.8475869,0.30328858,-0.5714089,-4.320854,0.7642571,-0.21413149,0.24997497,-0.08690827,1.9251099
18:27:26.881;-0.09443169,-0.6127028,8.079803,-0.16234994,0.19629753,-0.30007488,7.9588704,-4.498852,5.96152,308.28998,0.0,0.0,0.0,0.0,1006.43,29.3,56.93572,73.53904,57.33554,0.7353904,-3.872403,0.21383765,-0.50263065,-4.3362246,0.6676899,-0.21543029,0.25154534,-0.08930887,1.5805664
18:27:26.896;-0.083206795,-0.61274534,8.057424,-0.16234994,0.19629753,-0.30007488,7.9862967,-4.4638815,5.965216,308.56512,0.0,0.0,0.0,0.0,1006.43,29.3,56.93572,73.53904,57.33554,0.7353904,-3.8925726,0.14197555,-0.43564352,-4.348588,0.58995336,-0.2177032,0.2542935,-0.09350992,1.3054199
18:27:26.904;-0.07422688,-0.62044084,8.054842,-0.16234994,-0.0478431,0.12717122,8.008238,-4.435905,5.968173,308.78497,0.0,0.0,0.0,0.0,1006.43,29.3,56.93572,73.53904,57.33554,0.7353904,-3.9499466,0.078737676,-0.3758514,-4.4044423,0.52641714,-0.21916434,0.25386292,-0.09621059,1.0855713
18:27:26.914;-0.06704295,-0.6265972,8.052777,-0.16234994,-0.0478431,0.12717122,8.02579,-4.413524,5.9705386,308.96063,0.0,0.0,0.0,0.0,1006.43,29.3,56.93572,73.53904,57.33554,0.7353904,-3.9965158,0.028308481,-0.32322472,-4.4491415,0.47556436,-0.22078784,0.2533845,-0.09493888,0.9099121
18:27:26.925;-0.061295804,-0.63152236,8.051126,-0.16234994,-0.0478431,0.12717122,8.039832,-4.3956194,5.972431,309.10107,0.0,0.0,0.0,0.0,1006.43,29.3,56.93572,73.53904,57.33554,0.7353904,-4.0337687,-0.012049168,-0.27860332,-4.484912,0.43486705,-0.22257368,0.25285822,-0.09354,0.7694702
18:27:26.935;-0.056698088,-0.63546246,8.049804,-0.16234994,-0.0478431,0.12717122,8.051065,-4.3812957,5.973945,309.21332,0.0,0.0,0.0,0.0,1006.43,29.3,56.93572,73.53904,57.33554,0.7353904,-4.0635486,-0.04433304,-0.24155763,-4.513535,0.4022996,-0.22419718,0.2523798,-0.09226829,0.65722656
18:27:26.945;-0.053019915,-0.6156302,8.048746,-0.040279627,0.25733268,0.06613606,7.9496527,-4.3514366,5.938356,309.07263,0.0,0.0,0.0,0.0,1006.49,29.3,56.433685,73.53904,57.33554,0.7353904,-3.9409046,-0.05514264,-0.095934086,-4.373812,0.37632278,-0.22459997,0.25495315,-0.09099658,0.7979126
18:27:26.954;-0.05007738,-0.5997644,8.0479,-0.040279627,0.25733268,0.06613606,7.868522,-4.3275495,5.909885,308.9578,0.0,0.0,0.0,0.0,1006.49,29.3,56.433685,73.53904,57.33554,0.7353904,-3.8413227,-0.06392577,-0.035748895,-4.261969,0.35552767,-0.22496249,0.25726914,-0.09040135,0.91275024
18:27:26.965;-0.04772335,-0.5870718,8.047224,-0.040279627,0.25733268,0.06613606,7.803618,-4.3084397,5.887108,308.86438,0.0,0.0,0.0,0.0,1006.49,29.3,56.433685,73.608154,57.33623,0.73608154,-3.7616403,-0.07091203,-0.01603729,-4.172453,0.33888298,-0.22536528,0.2598425,-0.08973999,1.0061646
18:27:26.974;-0.045840126,-0.5845791,8.046682,-0.040279627,0.25733268,-0.05593425,7.7516947,-4.2747517,5.887286,308.89282,0.0,0.0,0.0,0.0,1006.49,29.3,56.433685,73.608154,57.33623,0.73608154,-3.7467062,-0.08142766,-0.06677915,-4.155083,0.32553962,-0.22576807,0.26241583,-0.089078635,0.97772217
18:27:26.984;-0.044333547,-0.582585,8.046249,-0.040279627,0.25733268,-0.05593425,7.710156,-4.2478013,5.8874288,308.91586,0.0,0.0,0.0,0.0,1006.43,29.3,56.93572,73.608154,57.33623,0.73608154,-3.7352498,-0.08989081,-0.08972895,-4.1411853,0.31486318,-0.22617087,0.26498917,-0.08963798,0.9546814
18:27:26.994;-0.04312828,-0.58098966,8.045903,-0.040279627,0.25733268,-0.05593425,7.6769247,-4.226241,5.887543,308.9345,0.0,0.0,0.0,0.0,1006.43,29.3,56.93572,73.608154,57.33623,0.73608154,-3.7260878,-0.0966627,-0.09928626,-4.130065,0.30632085,-0.22657366,0.2675625,-0.090197325,0.93603516
18:27:27.004;-0.049825516,-0.58737487,8.045626,-0.040279627,0.19629753,0.06613606,7.7055397,-4.208993,5.8876348,309.12314,0.0,0.0,0.0,0.0,1006.43,29.3,56.93572,73.608154,57.33623,0.73608154,-3.7675838,-0.058070987,-0.18933603,-4.1754193,0.353879,-0.22697645,0.2695255,-0.09075667,0.747406
18:27:27.013;-0.055183303,-0.59248304,8.045404,-0.040279627,0.19629753,0.06613606,7.7284317,-4.1951942,5.8877077,309.27356,0.0,0.0,0.0,0.0,1006.43,29.3,56.93572,73.608154,57.33623,0.73608154,-3.7963715,-0.026729405,-0.21495931,-4.211698,0.39192343,-0.22733897,0.27129218,-0.09016144,0.59698486
18:27:27.024;-0.059469532,-0.59656954,8.045227,-0.040279627,0.19629753,0.06613606,7.7467456,-4.1841555,5.8877664,309.39355,0.0,0.0,0.0,0.0,1006.41,29.3,57.10218,73.608154,57.33623,0.73608154,-3.819364,-0.001598686,-0.21219419,-4.240719,0.42235756,-0.22778204,0.27345145,-0.089433946,0.47698975
18:27:27.034;-0.06289852,-0.59983873,8.045085,0.02075553,0.013192058,0.12717122,7.7613964,-4.1753244,5.887813,309.48932,0.0,0.0,0.0,0.0,1006.41,29.3,57.10218,73.608154,57.33623,0.73608154,-3.8376813,0.018277287,-0.19839855,-4.2639337,0.44670394,-0.22759524,0.27357018,-0.08883872,0.3812256
18:27:27.044;-0.0656417,-0.6024541,8.044971,0.02075553,0.013192058,0.12717122,7.773117,-4.1682596,5.8878503,309.5658,0.0,0.0,0.0,0.0,1006.41,29.3,57.10218,73.608154,57.33623,0.73608154,-3.8524055,0.034334987,-0.18122129,-4.2825046,0.4661804,-0.22738768,0.2737021,-0.08756701,0.30474854
18:27:27.054;-0.067836255,-0.6045464,8.044881,0.02075553,0.013192058,0.12717122,7.7824936,-4.1626077,5.8878803,309.62692,0.0,0.0,0.0,0.0,1006.41,29.3,57.10218,73.608154,57.33623,0.73608154,-3.864168,0.04718283,-0.16425806,-4.2973604,0.48176125,-0.22715937,0.27384722,-0.086168125,0.24362183
18:27:27.064;-0.061930448,-0.60622025,8.044808,-0.10131478,0.013192058,0.005100906,7.789995,-4.139686,5.887904,309.78116,0.0,0.0,0.0,0.0,1006.43,29.3,56.93572,73.608154,57.33623,0.73608154,-3.873733,0.008476108,-0.20169516,-4.309278,0.43981805,-0.22817251,0.27397916,-0.084896415,0.08938599
18:27:27.074;-0.057205804,-0.6075593,8.04475,-0.10131478,0.013192058,0.005100906,7.795996,-4.121349,5.8879232,309.90466,0.0,0.0,0.0,0.0,1006.43,29.3,56.93572,73.608154,57.33623,0.73608154,-3.886183,-0.022967935,-0.2050226,-4.3188105,0.40626356,-0.22918566,0.2741111,-0.08484541,-0.034118652
18:27:27.084;-0.053426087,-0.6086306,8.0447035,-0.10131478,0.013192058,0.005100906,7.800797,-4.106679,5.8879385,310.00354,0.0,0.0,0.0,0.0,1006.43,29.3,56.93572,73.608154,57.33623,0.73608154,-3.8961904,-0.04812786,-0.19434698,-4.326436,0.37942,-0.2301988,0.27424303,-0.0847944,-0.1329956
18:27:27.094;-0.05806376,-0.60182613,8.052328,-0.040279627,0.013192058,0.005100906,7.804638,-4.094943,5.887951,310.0827,0.0,0.0,0.0,0.0,1006.43,29.3,56.93572,73.608154,57.33623,0.73608154,-3.8516278,-0.014356434,-0.17912647,-4.2741942,0.41199243,-0.2306016,0.27437496,-0.084743395,-0.2121582
18:27:27.104;-0.0617739,-0.59638256,8.058428,-0.040279627,0.013192058,0.005100906,7.8077106,-4.0855546,5.887961,310.14603,0.0,0.0,0.0,0.0,1006.43,29.3,56.93572,73.608154,57.33623,0.73608154,-3.8106954,0.013151497,-0.16357142,-4.232466,0.43800876,-0.23100439,0.2745069,-0.08469239,-0.27548218
18:27:27.116;-0.064742014,-0.5920277,8.063307,-0.040279627,0.013192058,0.005100906,7.8101687,-4.078044,5.8879685,310.19672,0.0,0.0,0.0,0.0,1006.43,29.3,56.93572,73.608154,57.33623,0.73608154,-3.7779467,0.03513685,-0.14944614,-4.1991262,0.45879525,-0.23148774,0.2746652,-0.084631175,-0.32617188
18:27:27.125;-0.0671165,-0.58854383,8.06721,-0.10131478,0.13526237,0.06613606,7.830535,-4.090435,5.869575,310.1866,0.0,0.0,0.0,0.0,1006.43,29.3,56.93572,73.608154,57.33623,0.73608154,-3.7518,0.052794814,-0.111965045,-4.172481,0.47540736,-0.23229825,0.2757473,-0.084585264,-0.31607056
18:27:27.136;-0.06901609,-0.5857567,8.0703335,-0.10131478,0.13526237,0.06613606,7.846828,-4.100348,5.85486,310.17856,0.0,0.0,0.0,0.0,1006.43,29.3,56.93572,73.608154,57.33623,0.73608154,-3.730905,0.066889316,-0.09388308,-4.151181,0.48868614,-0.23351403,0.27737045,-0.08385777,-0.30801392
18:27:27.147;-0.055212874,-0.5911885,8.072832,-0.2233851,0.074227214,-0.11696941,7.8598623,-4.1082783,5.8430877,310.17215,0.0,0.0,0.0,0.0,1006.49,29.3,56.433685,73.608154,57.33623,0.73608154,-3.7630284,-0.024489582,-0.08530233,-4.188302,0.3908129,-0.23597126,0.27818695,-0.08313027,-0.30160522
18:27:27.158;-0.044170298,-0.5955339,8.074831,-0.2233851,0.074227214,-0.11696941,7.87029,-4.1146226,5.83367,310.16705,0.0,0.0,0.0,0.0,1006.49,29.3,56.433685,73.608154,57.33623,0.73608154,-3.7988687,-0.0984987,-0.082311414,-4.2179713,0.3125628,-0.23842849,0.27900344,-0.08441693,-0.2965088
18:27:27.170;-0.035336237,-0.5990102,8.076429,-0.2233851,0.074227214,-0.11696941,7.878632,-4.119698,5.826136,310.16296,0.0,0.0,0.0,0.0,1006.49,29.3,56.433685,73.608154,57.33623,0.73608154,-3.8276386,-0.15768021,-0.08202131,-4.2416897,0.24999398,-0.2411091,0.27989417,-0.08582056,-0.29241943
18:27:27.179;-0.035930436,-0.6017913,8.070047,-0.040279627,0.13526237,0.06613606,7.8669057,-4.1421585,5.820109,309.9997,0.0,0.0,0.0,0.0,1006.49,29.3,56.433685,73.608154,57.33623,0.73608154,-3.8540041,-0.15632664,-0.0028127767,-4.2646666,0.25439116,-0.24147162,0.28111154,-0.086873285,-0.12915039
18:27:27.189;-0.036405794,-0.6040162,8.064941,-0.040279627,0.13526237,0.06613606,7.857525,-4.1601267,5.815287,309.86908,0.0,0.0,0.0,0.0,1006.47,29.3,56.60015,73.608154,57.33623,0.73608154,-3.8704393,-0.15478638,0.020795267,-4.283074,0.25791368,-0.24187441,0.28246418,-0.08621193,0.0014648438
18:27:27.200;-0.03678608,-0.6057961,8.060857,-0.040279627,0.13526237,0.06613606,7.85002,-4.1745014,5.8114295,309.76456,0.0,0.0,0.0,0.0,1006.47,29.3,56.60015,73.608154,57.33623,0.73608154,-3.8835566,-0.15354559,0.019916773,-4.2978153,0.26073477,-0.24231748,0.28395206,-0.08548443,0.10598755
18:27:27.209;-0.029428864,-0.6225429,8.049928,-0.16234994,0.19629753,0.06613606,7.844016,-4.1860013,5.8083434,309.68097,0.0,0.0,0.0,0.0,1006.47,29.3,56.60015,73.53904,57.33554,0.7353904,-3.9954357,-0.21141365,0.009307608,-4.42215,0.20883697,-0.24377863,0.28571874,-0.0848892,0.1895752
18:27:27.219;-0.023543091,-0.6359404,8.041184,-0.16234994,0.19629753,0.06613606,7.839213,-4.195201,5.805875,309.6141,0.0,0.0,0.0,0.0,1006.47,29.3,56.60015,73.53904,57.33554,0.7353904,-4.0909495,-0.25839275,-0.0040281117,-4.521829,0.16722876,-0.24540213,0.28768173,-0.084227845,0.2564392
18:27:27.229;-0.018834474,-0.6466583,8.034189,-0.16234994,0.19629753,0.06613606,7.8353705,-4.202561,5.8039,309.5606,0.0,0.0,0.0,0.0,1006.41,29.3,57.10218,73.53904,57.33554,0.7353904,-4.167538,-0.29606128,-0.017048642,-4.6017075,0.13388473,-0.24702562,0.28964472,-0.08356649,0.30993652
18:27:27.239;-0.030390471,-0.63224834,8.036255,-0.10131478,0.19629753,-0.05593425,7.8138967,-4.2268486,5.8207197,309.3571,0.0,0.0,0.0,0.0,1006.41,29.3,57.10218,73.53904,57.33554,0.7353904,-4.0782843,-0.21322736,0.05178398,-4.498419,0.21600528,-0.24803877,0.2916077,-0.08290513,0.51345825
18:27:27.249;-0.039635267,-0.6207203,8.037908,-0.10131478,0.19629753,-0.05593425,7.796717,-4.246279,5.8341756,309.19406,0.0,0.0,0.0,0.0,1006.41,29.3,57.10218,73.53904,57.33554,0.7353904,-3.9956424,-0.14584967,0.065672204,-4.415798,0.281687,-0.24905191,0.2935707,-0.08346447,0.67648315
18:27:27.259;-0.047031105,-0.61149794,8.039229,-0.10131478,0.19629753,-0.05593425,7.782974,-4.261823,5.8449407,309.06348,0.0,0.0,0.0,0.0,1006.41,29.3,57.10218,73.53904,57.33554,0.7353904,-3.9294252,-0.091945976,0.05611655,-4.34971,0.33422253,-0.25006506,0.2955337,-0.08402382,0.8070679
18:27:27.269;-0.052947775,-0.60412,8.040287,-0.10131478,0.19629753,-0.05593425,7.771979,-4.2742586,5.8535523,308.9589,0.0,0.0,0.0,0.0,1006.41,29.3,57.10218,73.608154,57.33623,0.73608154,-3.8764558,-0.048829317,0.038058564,-4.2968445,0.37624443,-0.25107822,0.29749668,-0.08458316,0.9116516
18:27:27.279;-0.050019667,-0.59055626,8.056456,-0.040279627,0.13526237,-0.17800456,7.763183,-4.284207,5.8604417,308.87518,0.0,0.0,0.0,0.0,1006.41,29.3,57.10218,73.608154,57.33623,0.73608154,-3.7780204,-0.058371365,0.018312886,-4.1923304,0.35477272,-0.25148103,0.2988493,-0.08514251,0.9953613
18:27:27.291;-0.047677178,-0.57970524,8.069391,-0.040279627,0.13526237,-0.17800456,7.7561464,-4.2921653,5.8659534,308.80817,0.0,0.0,0.0,0.0,1006.41,29.3,57.10218,73.608154,57.33623,0.73608154,-3.7039807,-0.06636232,-8.8553503E-4,-4.1089993,0.33765218,-0.2519241,0.3003372,-0.08710056,1.0623779
18:27:27.300;-0.04580319,-0.5710244,8.07974,-0.040279627,0.13526237,-0.17800456,7.7505174,-4.298532,5.8703628,308.75452,0.0,0.0,0.0,0.0,1006.41,29.3,57.10218,73.608154,57.33623,0.73608154,-3.6449385,-0.07276568,-0.01805812,-4.0425134,0.32399213,-0.2523269,0.30168983,-0.088880606,1.1160278
18:27:27.309;-0.044304,-0.5717412,8.072695,0.081790686,0.31836784,0.18820637,7.727614,-4.285226,5.8738904,308.75797,0.0,0.0,0.0,0.0,1006.31,29.3,57.93978,73.608154,57.33623,0.73608154,-3.6531892,-0.08274031,-0.055994626,-4.051096,0.31365788,-0.2515908,0.30455515,-0.090482645,1.1125793
18:27:27.319;-0.043104645,-0.5723147,8.0670595,0.081790686,0.31836784,0.18820637,7.709291,-4.274581,5.8767123,308.7607,0.0,0.0,0.0,0.0,1006.31,29.3,57.93978,73.608154,57.33623,0.73608154,-3.660367,-0.09087852,-0.073670894,-4.057972,0.30537757,-0.2507729,0.30773884,-0.08860058,1.1098328
18:27:27.329;-0.042145163,-0.5727734,8.0625515,0.081790686,0.31836784,0.18820637,7.694633,-4.2660646,5.8789697,308.7629,0.0,0.0,0.0,0.0,1006.31,29.3,57.93978,73.608154,57.33623,0.73608154,-3.6661375,-0.097424805,-0.081293344,-4.0634794,0.2987451,-0.24995498,0.31092253,-0.08671852,1.1076355
18:27:27.339;-0.041377574,-0.58080184,8.051283,-0.040279627,0.074227214,-0.05593425,7.6829066,-4.2592516,5.880776,308.7647,0.0,0.0,0.0,0.0,1006.31,29.3,57.93978,73.608154,57.33623,0.73608154,-3.7231736,-0.10792059,-0.08396517,-4.12599,0.29369172,-0.25035778,0.31166482,-0.08483646,1.105835
18:27:27.350;-0.040763505,-0.5872246,8.042269,-0.040279627,0.074227214,-0.05593425,7.6735253,-4.2538013,5.8822207,308.7661,0.0,0.0,0.0,0.0,1006.37,29.3,57.43775,73.53904,57.33554,0.7353904,-3.769342,-0.11617735,-0.08541036,-4.1761174,0.28963912,-0.25080085,0.3124813,-0.08545174,1.1044312
18:27:27.360;-0.04027225,-0.58470136,8.035057,-0.10131478,0.19629753,-0.11696941,7.6660204,-4.249441,5.8833766,308.76727,0.0,0.0,0.0,0.0,1006.37,29.3,57.43775,73.53904,57.33554,0.7353904,-3.7574797,-0.117782116,-0.08629055,-4.1619563,0.28641063,-0.251814,0.3144443,-0.08601108,1.1032715
18:27:27.370;-0.039879248,-0.5826828,8.029287,-0.10131478,0.19629753,-0.11696941,7.6600165,-4.245953,5.884301,308.7682,0.0,0.0,0.0,0.0,1006.37,29.3,57.43775,73.53904,57.33554,0.7353904,-3.7474275,-0.11910525,-0.08719343,-4.150609,0.28382358,-0.25282717,0.3164073,-0.08718078,1.102356
18:27:27.381;-0.039564844,-0.5810679,8.024672,-0.10131478,0.19629753,-0.11696941,7.6552134,-4.2431626,5.8850408,308.76892,0.0,0.0,0.0,0.0,1006.37,29.3,57.43775,73.53904,57.33554,0.7353904,-3.739379,-0.12016553,-0.08813816,-4.141519,0.2817512,-0.25384033,0.31837028,-0.088350475,1.1016235
18:27:27.393;-0.03931332,-0.579776,8.020979,-0.10131478,0.19629753,-0.11696941,7.6513705,-4.24093,5.8856325,308.7695,0.0,0.0,0.0,0.0,1006.41,29.3,57.10218,73.53904,57.33554,0.7353904,-3.732964,-0.120958894,-0.08929454,-4.1342397,0.2800915,-0.2551574,0.32092214,-0.08987108,1.1010437
18:27:27.401;-0.031450655,-0.57874244,8.025686,-0.16234994,0.074227214,-0.11696941,7.6666965,-4.2391443,5.886106,308.8283,0.0,0.0,0.0,0.0,1006.41,29.3,57.10218,73.53904,57.33554,0.7353904,-3.7242765,-0.17081763,-0.11945437,-4.1245008,0.22394517,-0.2564562,0.32151595,-0.090806834,1.0422363
18:27:27.410;-0.025160525,-0.5779156,8.029452,-0.16234994,0.074227214,-0.11696941,7.6789575,-4.2377157,5.8864846,308.87524,0.0,0.0,0.0,0.0,1006.41,29.3,57.10218,73.608154,57.33623,0.73608154,-3.7222707,-0.21099351,-0.12912498,-4.1167145,0.1790742,-0.25791734,0.322184,-0.09185956,0.9953003
18:27:27.421;-0.02012842,-0.5772542,8.032465,-0.16234994,0.074227214,-0.11696941,7.688766,-4.2365727,5.886788,308.9127,0.0,0.0,0.0,0.0,1006.41,29.3,57.10218,73.608154,57.33623,0.73608154,-3.720702,-0.24310978,-0.12979965,-4.1104894,0.14320691,-0.25954086,0.32292628,-0.09302925,0.9578552
18:27:27.431;-0.023764182,-0.58438647,8.034876,-0.040279627,0.074227214,-0.11696941,7.696613,-4.235658,5.88703,308.94263,0.0,0.0,0.0,0.0,1006.31,29.3,57.93978,73.608154,57.33623,0.73608154,-3.7682164,-0.22462852,-0.12702665,-4.15985,0.16901273,-0.25994366,0.32374278,-0.09431592,0.9279175
18:27:27.441;-0.026672792,-0.5900923,8.036804,-0.040279627,0.074227214,-0.11696941,7.7028904,-4.2349267,5.887224,308.96652,0.0,0.0,0.0,0.0,1006.31,29.3,57.93978,73.608154,57.33623,0.73608154,-3.8018885,-0.20943524,-0.12320376,-4.1993127,0.18964379,-0.26038674,0.32448506,-0.09548561,0.9040222
18:27:27.451;-0.028999679,-0.59465694,8.038347,-0.040279627,0.074227214,-0.11696941,7.7079124,-4.2343416,5.887379,308.98563,0.0,0.0,0.0,0.0,1006.31,29.3,57.93978,73.608154,57.33623,0.73608154,-3.8287582,-0.19728312,-0.11942305,-4.230865,0.20613989,-0.26074925,0.3251531,-0.096538335,0.8849182
18:27:27.461;-0.038522635,-0.5983087,8.0319195,-0.040279627,-0.0478431,0.18820637,7.69353,-4.2338734,5.8691034,308.9431,0.0,0.0,0.0,0.0,1006.31,29.3,57.93978,73.608154,57.33623,0.73608154,-3.8538802,-0.13879965,-0.087310046,-4.260124,0.27404025,-0.26115206,0.3246747,-0.09770803,0.9274292
18:27:27.471;-0.046141,-0.6012301,8.026777,-0.040279627,-0.0478431,0.18820637,7.682024,-4.2334986,5.8544827,308.90903,0.0,0.0,0.0,0.0,1006.35,29.3,57.604214,73.608154,57.33623,0.73608154,-3.8691273,-0.09137434,-0.07442984,-4.283559,0.3284345,-0.26159513,0.32414842,-0.09563776,0.96151733
18:27:27.481;-0.05223569,-0.6035672,8.022664,-0.040279627,-0.0478431,0.18820637,7.672819,-4.233199,5.8427863,308.8817,0.0,0.0,0.0,0.0,1006.35,29.3,57.604214,73.608154,57.33623,0.73608154,-3.881269,-0.05337727,-0.07043615,-4.302324,0.3719972,-0.26199794,0.32367,-0.0937557,0.98883057
18:27:27.491;-0.041788552,-0.60543686,8.027035,-0.040279627,0.074227214,-0.23903972,7.6654553,-4.2329593,5.833429,308.8598,0.0,0.0,0.0,0.0,1006.35,29.3,57.604214,73.608154,57.33623,0.73608154,-3.8873415,-0.12097028,-0.07019909,-4.313293,0.29743296,-0.26240075,0.3244123,-0.09187364,1.0107422
18:27:27.502;-0.03343084,-0.60693264,8.030531,-0.040279627,0.074227214,-0.23903972,7.6595645,-4.2327676,5.825943,308.84225,0.0,0.0,0.0,0.0,1006.35,29.3,57.604214,73.608154,57.33623,0.73608154,-3.9019904,-0.17606066,-0.07357728,-4.322055,0.2378408,-0.26284382,0.32522878,-0.094503075,1.0282898
18:27:27.513;-0.026744673,-0.60812926,8.033328,-0.040279627,0.074227214,-0.23903972,7.6548514,-4.232614,5.8199544,308.8282,0.0,0.0,0.0,0.0,1006.43,29.3,56.93572,73.608154,57.33623,0.73608154,-3.9137995,-0.22011378,-0.07832059,-4.329055,0.19020502,-0.2632869,0.32604527,-0.09713251,1.0423584
18:27:27.524;-0.029057184,-0.6014251,8.043227,-0.10131478,0.19629753,-0.05593425,7.6694813,-4.2140913,5.8335633,308.98068,0.0,0.0,0.0,0.0,1006.43,29.3,56.93572,73.608154,57.33623,0.73608154,-3.8707519,-0.2010892,-0.16528943,-4.2762547,0.20641118,-0.26440135,0.32820454,-0.09976195,0.88986206
18:27:27.534;-0.030907193,-0.59606177,8.0511465,-0.10131478,0.19629753,-0.05593425,7.6811852,-4.199273,5.8444505,309.10257,0.0,0.0,0.0,0.0,1006.43,29.3,56.93572,73.608154,57.33623,0.73608154,-3.8309026,-0.18548001,-0.19374897,-4.2341027,0.21934886,-0.2654145,0.33016753,-0.10032129,0.76797485
18:27:27.544;-0.024725754,-0.59177107,8.057482,-0.040279627,0.25733268,0.06613606,7.6905484,-4.1874185,5.8531604,309.2,0.0,0.0,0.0,0.0,1006.43,29.3,56.93572,73.608154,57.33623,0.73608154,-3.7989945,-0.22182801,-0.1960361,-4.2004514,0.17534903,-0.2658173,0.33274087,-0.10088064,0.6705322
18:27:27.554;-0.019780602,-0.58833855,8.062551,-0.040279627,0.25733268,0.06613606,7.6980386,-4.1779346,5.8601284,309.27792,0.0,0.0,0.0,0.0,1006.49,29.3,56.433685,73.608154,57.33623,0.73608154,-3.778431,-0.25140938,-0.18708338,-4.1735644,0.140196,-0.26622012,0.3353142,-0.10021928,0.59262085
18:27:27.565;-0.015824482,-0.5855925,8.066606,-0.040279627,0.25733268,0.06613606,7.704031,-4.1703477,5.8657026,309.34024,0.0,0.0,0.0,0.0,1006.49,29.3,56.433685,73.608154,57.33623,0.73608154,-3.76205,-0.27505448,-0.1744791,-4.1520762,0.11210356,-0.26662293,0.33788756,-0.09955792,0.53030396
18:27:27.574;-0.02032103,-0.5910571,8.062188,-0.16234994,0.013192058,0.06613606,7.7088246,-4.182678,5.888562,309.2843,0.0,0.0,0.0,0.0,1006.49,29.3,56.433685,73.608154,57.33623,0.73608154,-3.8013387,-0.25049442,-0.10871847,-4.192968,0.1440292,-0.26824644,0.3380195,-0.09889656,0.5862427
18:27:27.585;-0.02391827,-0.5954288,8.058654,-0.16234994,0.013192058,0.06613606,7.71266,-4.1925426,5.90685,309.23965,0.0,0.0,0.0,0.0,1006.49,29.3,56.433685,73.608154,57.33623,0.73608154,-3.8283503,-0.23018871,-0.08115323,-4.2257094,0.1695924,-0.26986995,0.33815143,-0.098235205,0.6308899
18:27:27.596;-0.026796062,-0.5989262,8.055826,-0.16234994,0.013192058,0.06613606,7.715728,-4.200434,5.92148,309.20398,0.0,0.0,0.0,0.0,1006.49,29.3,56.433685,73.608154,57.33623,0.73608154,-3.849926,-0.21392636,-0.07149294,-4.2519207,0.19005747,-0.2716558,0.33829653,-0.09750771,0.66656494
18:27:27.604;-0.029098295,-0.6017241,8.053564,-0.16234994,0.013192058,0.06613606,7.718182,-4.2067475,5.933184,309.1755,0.0,0.0,0.0,0.0,1006.37,29.3,57.43775,73.608154,57.33623,0.73608154,-3.86715,-0.20090821,-0.06996626,-4.2729015,0.20643881,-0.27311695,0.33841527,-0.09691248,0.69503784
18:27:27.614;-0.030940082,-0.5886395,8.051755,-0.10131478,0.13526237,0.06613606,7.7201457,-4.211798,5.9425473,309.1527,0.0,0.0,0.0,0.0,1006.37,29.3,57.43775,73.608154,57.33623,0.73608154,-3.7833188,-0.1805741,-0.07171038,-4.181252,0.21958059,-0.2741301,0.3397679,-0.09625112,0.7178345
18:27:27.625;-0.032413512,-0.57817185,8.050307,-0.10131478,0.13526237,0.06613606,7.7217164,-4.2158384,5.950038,309.13452,0.0,0.0,0.0,0.0,1006.37,29.3,57.43775,73.608154,57.33623,0.73608154,-3.715268,-0.16428795,-0.07452276,-4.1078877,0.23010007,-0.27524456,0.34125578,-0.095523626,0.73602295
18:27:27.634;-0.033592254,-0.5697977,8.0491495,-0.10131478,0.13526237,0.06613606,7.7229733,-4.219071,5.9560304,309.12,0.0,0.0,0.0,0.0,1006.37,29.3,57.43775,73.608154,57.33623,0.73608154,-3.6607704,-0.15128781,-0.0774624,-4.049167,0.23851946,-0.2761564,0.34247315,-0.0949284,0.7505493
18:27:27.644;-0.034535248,-0.5630984,8.040562,-0.10131478,0.19629753,-0.05593425,7.7239785,-4.221657,5.9608245,309.10834,0.0,0.0,0.0,0.0,1006.37,29.3,57.43775,73.608154,57.33623,0.73608154,-3.6206057,-0.14092332,-0.080035865,-4.005973,0.24548998,-0.27716956,0.34443614,-0.09426704,0.76220703
18:27:27.654;-0.035289645,-0.55773896,8.033691,-0.10131478,0.19629753,-0.05593425,7.724783,-4.2237253,5.9646597,309.09906,0.0,0.0,0.0,0.0,1006.37,29.3,57.43775,73.608154,57.33623,0.73608154,-3.588407,-0.13267462,-0.08279245,-3.9713485,0.25107756,-0.27818272,0.34639913,-0.094826385,0.7714844
18:27:27.664;-0.03589316,-0.5534514,8.028195,-0.10131478,0.19629753,-0.05593425,7.725426,-4.2253804,5.9677277,309.0916,0.0,0.0,0.0,0.0,1006.37,29.3,57.43775,73.608154,57.33623,0.73608154,-3.5626123,-0.12606566,-0.08536595,-3.943604,0.25555477,-0.27919587,0.34836212,-0.09538573,0.77893066
18:27:27.674;-0.04403742,-0.57300574,8.03146,-0.3454554,0.13526237,-0.05593425,7.725941,-4.2267046,5.9701824,309.08563,0.0,0.0,0.0,0.0,1006.37,29.3,57.43775,73.608154,57.33623,0.73608154,-3.6856725,-0.08640826,-0.08766479,-4.0808005,0.31335974,-0.28265044,0.34971476,-0.095945075,0.7849121
18:27:27.684;-0.050552826,-0.58864915,8.034071,-0.3454554,0.13526237,-0.05593425,7.726353,-4.2277637,5.972146,309.0809,0.0,0.0,0.0,0.0,1006.35,29.3,57.604214,73.608154,57.33623,0.73608154,-3.780382,-0.05430436,-0.08971949,-4.1904397,0.359554,-0.286105,0.3510674,-0.09650442,0.78964233
18:27:27.694;-0.055765152,-0.6011639,8.03616,-0.3454554,0.13526237,-0.05593425,7.7266827,-4.228611,5.9737167,309.0771,0.0,0.0,0.0,0.0,1006.35,29.3,57.604214,73.608154,57.33623,0.73608154,-3.856043,-0.028639615,-0.09148428,-4.2780747,0.39647716,-0.28955957,0.35242003,-0.097063765,0.79345703
18:27:27.704;-0.05993501,-0.5958528,8.045493,-0.040279627,0.13526237,0.005100906,7.7269464,-4.229289,5.9749737,309.07404,0.0,0.0,0.0,0.0,1006.35,29.3,57.604214,73.608154,57.33623,0.73608154,-3.8148549,0.0017366111,-0.093027815,-4.235501,0.4256521,-0.28996238,0.35377267,-0.09762311,0.7965088
18:27:27.715;-0.0632709,-0.59160393,8.052959,-0.040279627,0.13526237,0.005100906,7.727157,-4.229831,5.975979,309.0716,0.0,0.0,0.0,0.0,1006.35,29.3,57.604214,73.608154,57.33623,0.73608154,-3.7812252,0.026063502,-0.094079256,-4.2015095,0.4489453,-0.2903652,0.3551253,-0.0975721,0.7989502
18:27:27.724;-0.065939605,-0.5882048,8.058932,-0.040279627,0.13526237,0.005100906,7.727326,-4.230265,5.9767833,309.06964,0.0,0.0,0.0,0.0,1006.43,29.3,56.93572,73.608154,57.33623,0.73608154,-3.7543569,0.045494586,-0.094823614,-4.174359,0.46755004,-0.290768,0.35647795,-0.0975211,0.8009033
18:27:27.734;-0.052751683,-0.5854855,8.071372,-0.16234994,0.013192058,0.06613606,7.7090607,-4.2306123,5.9774265,309.01053,0.0,0.0,0.0,0.0,1006.43,29.3,56.93572,73.608154,57.33623,0.73608154,-3.72953,-0.036808997,-0.06659058,-4.148797,0.3734787,-0.2923915,0.35660988,-0.09747009,0.86001587
18:27:27.745;-0.042201348,-0.58331007,8.081324,-0.16234994,0.013192058,0.06613606,7.6944485,-4.23089,5.9779415,308.96307,0.0,0.0,0.0,0.0,1006.43,29.3,56.93572,73.608154,57.33623,0.73608154,-3.7193983,-0.1033448,-0.057972237,-4.1283946,0.29842427,-0.29401502,0.35674182,-0.09680873,0.9074707
18:27:27.756;-0.033761077,-0.58156973,8.089285,-0.16234994,0.013192058,0.06613606,7.682759,-4.231112,5.9783535,308.925,0.0,0.0,0.0,0.0,1006.43,29.3,56.93572,73.608154,57.33623,0.73608154,-3.7114215,-0.15646723,-0.057950698,-4.1121025,0.23851012,-0.29596323,0.35690013,-0.096015096,0.94555664
18:27:27.765;-0.03467031,-0.5801775,8.0956545,-0.2233851,0.13526237,-0.05593425,7.673407,-4.23129,5.978683,308.89447,0.0,0.0,0.0,0.0,1006.52997,29.3,56.098118,73.608154,57.33623,0.73608154,-3.7050138,-0.15010941,-0.061426494,-4.0990734,0.24474472,-0.2979737,0.3581175,-0.09541987,0.9760742
18:27:27.775;-0.035397694,-0.57906365,8.10075,-0.2233851,0.13526237,-0.05593425,7.6659255,-4.231432,5.9789467,308.87003,0.0,0.0,0.0,0.0,1006.52997,29.3,56.098118,73.608154,57.33623,0.73608154,-3.69501,-0.14462632,-0.06645259,-4.0886645,0.24972549,-0.29998416,0.35933486,-0.095923275,1.0005188
18:27:27.785;-0.0359796,-0.5781726,8.104826,-0.2233851,0.13526237,-0.05593425,7.6599402,-4.2315454,5.9791574,308.85043,0.0,0.0,0.0,0.0,1006.52997,29.3,56.098118,73.608154,57.33623,0.73608154,-3.6869984,-0.14022946,-0.07167146,-4.080347,0.25370568,-0.30221802,0.3606875,-0.09648262,1.0201111
18:27:27.795;-0.036445126,-0.57745975,8.092764,-0.2233851,0.013192058,0.005100906,7.673552,-4.2316365,5.960926,308.89294,0.0,0.0,0.0,0.0,1006.52997,29.3,56.098118,73.608154,57.33623,0.73608154,-3.6875155,-0.13710321,-0.10564017,-4.0813856,0.25737092,-0.30467525,0.3608326,-0.097097896,0.9776001
18:27:27.805;-0.036817547,-0.57688946,8.083115,-0.2233851,0.013192058,0.005100906,7.6844416,-4.2317095,5.946341,308.92688,0.0,0.0,0.0,0.0,1006.37,29.3,57.43775,73.608154,57.33623,0.73608154,-3.6879082,-0.13449907,-0.11831385,-4.0822186,0.26031098,-0.30668572,0.36095133,-0.097051986,0.94366455
18:27:27.815;-0.037115484,-0.57643324,8.075396,-0.2233851,0.013192058,0.005100906,7.6931534,-4.2317677,5.934673,308.95398,0.0,0.0,0.0,0.0,1006.37,29.3,57.43775,73.608154,57.33623,0.73608154,-3.6882932,-0.13241354,-0.12120467,-4.082886,0.26266807,-0.30914295,0.36109644,-0.096995875,0.91656494
18:27:27.825;-0.037353832,-0.58372974,8.076881,0.02075553,-0.0478431,0.005100906,7.700123,-4.2318144,5.9253383,308.97562,0.0,0.0,0.0,0.0,1006.37,29.3,57.43775,73.608154,57.33623,0.73608154,-3.733488,-0.13553621,-0.11989325,-4.1336308,0.2642894,-0.3089354,0.36061803,-0.09694487,0.894928
18:27:27.835;-0.03754451,-0.58956695,8.07807,0.02075553,-0.0478431,0.005100906,7.7056985,-4.2318516,5.9178705,308.99292,0.0,0.0,0.0,0.0,1006.37,29.3,57.43775,73.608154,57.33623,0.73608154,-3.7703207,-0.13805276,-0.11704529,-4.1742086,0.26558575,-0.30872786,0.3601396,-0.09689386,0.8776245
18:27:27.845;-0.037697054,-0.5942367,8.0790205,0.02075553,-0.0478431,0.005100906,7.710159,-4.231881,5.911896,309.0067,0.0,0.0,0.0,0.0,1006.41,29.3,57.10218,73.608154,57.33623,0.73608154,-3.7997773,-0.14006548,-0.11384104,-4.206659,0.26662236,-0.30852032,0.3596612,-0.096842855,0.86383057
18:27:27.856;-0.030157644,-0.590311,8.079782,0.02075553,0.13526237,0.005100906,7.732127,-4.2503047,5.925517,308.9705,0.0,0.0,0.0,0.0,1006.41,29.3,57.10218,73.608154,57.33623,0.73608154,-3.7747161,-0.18536541,-0.087201715,-4.1785917,0.21328603,-0.308292,0.36114907,-0.096786745,0.90005493
18:27:27.868;-0.024126116,-0.5871705,8.08039,0.02075553,0.13526237,0.005100906,7.749702,-4.2650437,5.936414,308.94165,0.0,0.0,0.0,0.0,1006.41,29.3,57.10218,73.608154,57.33623,0.73608154,-3.7590356,-0.22218221,-0.07754406,-4.156138,0.17062114,-0.30804294,0.36277223,-0.09672553,0.92889404
18:27:27.881;-0.034623783,-0.5923195,8.080877,-0.10131478,0.19629753,-0.05593425,7.7637615,-4.276835,5.9451313,308.9187,0.0,0.0,0.0,0.0,1006.41,29.3,57.10218,73.608154,57.33623,0.73608154,-3.795304,-0.15894388,-0.07562958,-4.1921825,0.24483441,-0.30925873,0.3651278,-0.09666432,0.95184326
18:27:27.887;-0.043021917,-0.5964387,8.081266,-0.10131478,0.19629753,-0.05593425,7.775009,-4.2862678,5.952105,308.9004,0.0,0.0,0.0,0.0,1006.43,29.3,56.93572,73.608154,57.33623,0.73608154,-3.8148725,-0.10757616,-0.07718745,-4.2210083,0.30419302,-0.30996794,0.3665019,-0.09705586,0.9701538
18:27:27.897;-0.049740426,-0.59973407,8.081578,-0.10131478,0.19629753,-0.05593425,7.7840075,-4.293814,5.957684,308.8858,0.0,0.0,0.0,0.0,1006.43,29.3,56.93572,73.608154,57.33623,0.73608154,-3.8305137,-0.06635019,-0.08010763,-4.244061,0.3516721,-0.3109811,0.3684649,-0.097615205,0.9847412
18:27:27.915;-0.05511523,-0.6023704,8.081827,-0.10131478,0.19629753,-0.05593425,7.7912064,-4.2998514,5.962147,308.87415,0.0,0.0,0.0,0.0,1006.43,29.3,56.93572,73.608154,57.33623,0.73608154,-3.8430667,-0.033268064,-0.08353597,-4.2624993,0.38965032,-0.31280476,0.37199825,-0.098622024,0.9963989
18:27:27.928;-0.05175363,-0.596818,8.074366,0.02075553,-0.0478431,0.005100906,7.796965,-4.286281,5.9473176,308.9686,0.0,0.0,0.0,0.0,1006.37,29.3,57.43775,73.608154,57.33623,0.73608154,-3.8078268,-0.051228732,-0.13866852,-4.2272525,0.36624017,-0.31253493,0.37137628,-0.09934917,0.901947
18:27:27.938;-0.04906435,-0.59237605,8.068396,0.02075553,-0.0478431,0.005100906,7.8015723,-4.275425,5.935454,309.04416,0.0,0.0,0.0,0.0,1006.37,29.3,57.43775,73.53904,57.33554,0.7353904,-3.7842088,-0.06573269,-0.15676665,-4.199005,0.3474792,-0.31234813,0.3709457,-0.09930326,0.8263855
18:27:27.948;-0.046912923,-0.59648395,8.071281,0.02075553,-0.0478431,0.24924153,7.805258,-4.26674,5.925963,309.1046,0.0,0.0,0.0,0.0,1006.37,29.3,57.43775,73.53904,57.33554,0.7353904,-3.8104177,-0.082193255,-0.15823457,-4.226519,0.33211237,-0.3121198,0.3704194,-0.09924715,0.7659302
18:27:27.960;-0.045191783,-0.5997703,8.07359,0.02075553,-0.0478431,0.24924153,7.8082066,-4.259792,5.9183702,309.153,0.0,0.0,0.0,0.0,1006.37,29.3,57.43775,73.53904,57.33554,0.7353904,-3.8318596,-0.09539381,-0.15157047,-4.2485147,0.31982753,-0.3118915,0.36989313,-0.09650549,0.7175293
18:27:27.970;-0.04381487,-0.60239935,8.075438,0.02075553,-0.0478431,0.24924153,7.8105655,-4.2542334,5.9122963,309.1917,0.0,0.0,0.0,0.0,1006.37,29.3,57.43775,73.53904,57.33554,0.7353904,-3.8490067,-0.10594869,-0.1420153,-4.2661004,0.31000513,-0.31166318,0.36936685,-0.093763836,0.678833
18:27:27.978;-0.050374787,-0.57385683,8.069254,-0.16234994,0.074227214,-0.17800456,7.665252,-4.341787,5.944237,308.23953,0.0,0.0,0.0,0.0,1006.41,29.3,57.10218,73.53904,57.33554,0.7353904,-3.6716957,-0.046007544,0.3591969,-4.0677457,0.35678074,-0.31296197,0.36996067,-0.091769904,1.631012
18:27:27.988;-0.05562272,-0.5510228,8.064306,-0.16234994,0.074227214,-0.17800456,7.5490017,-4.4118295,5.96979,307.46472,0.0,0.0,0.0,0.0,1006.41,29.3,57.10218,73.53904,57.33554,0.7353904,-3.5226583,0.0026479363,0.52022886,-3.9087725,0.3942662,-0.31458548,0.37070295,-0.09354995,2.4058228
18:27:28.001;-0.059821066,-0.5327556,8.0603485,-0.16234994,0.074227214,-0.17800456,7.4560013,-4.4678636,5.990232,306.8365,0.0,0.0,0.0,0.0,1006.41,29.3,57.10218,73.608154,57.33623,0.73608154,-3.4032147,0.041640967,0.52629983,-3.7814093,0.4242955,-0.31669602,0.3716679,-0.09586401,3.0340576
18:27:28.011;-0.024872515,-0.5641105,8.064844,-0.3454554,0.074227214,-0.11696941,7.381601,-4.512691,6.0065856,306.32858,0.0,0.0,0.0,0.0,1006.41,29.3,57.10218,73.608154,57.33623,0.73608154,-3.5971584,-0.20100357,0.46836892,-4.001124,0.17627275,-0.31980512,0.37233594,-0.09746605,3.5419617
18:27:28.021;0.0030863248,-0.5891944,8.06844,-0.3454554,0.074227214,-0.11696941,7.3220806,-4.548553,6.0196686,305.91882,0.0,0.0,0.0,0.0,1006.43,29.3,56.93572,73.608154,57.33623,0.73608154,-3.7794077,-0.39753175,0.38968784,-4.176586,-0.02185847,-0.32360512,0.37315243,-0.098752715,3.9517212
18:27:28.033;0.025453398,-0.6092616,8.071318,-0.3454554,0.074227214,-0.11696941,7.2744646,-4.5772424,6.0301347,305.58887,0.0,0.0,0.0,0.0,1006.43,29.3,56.93572,73.608154,57.33623,0.73608154,-3.9252436,-0.55459064,0.30974376,-4.316751,-0.1801726,-0.3277506,0.37404317,-0.100156344,4.2816772
18:27:28.042;0.043347053,-0.6023309,8.111926,-0.2233851,0.074227214,-0.17800456,7.3835716,-4.673794,6.038508,305.43405,0.0,0.0,0.0,0.0,1006.43,29.3,56.93572,73.608154,57.33623,0.73608154,-3.877512,-0.66247547,0.18167518,-4.2465024,-0.30532345,-0.32976106,0.37471122,-0.10120907,4.436493
18:27:28.051;0.05766198,-0.59678644,8.144413,-0.2233851,0.074227214,-0.17800456,7.4708576,-4.751035,6.0452065,305.3138,0.0,0.0,0.0,0.0,1006.43,29.3,56.93572,73.608154,57.33623,0.73608154,-3.838156,-0.7478523,0.09955168,-4.190786,-0.40455946,-0.33177152,0.37537926,-0.102811106,4.556732
18:27:28.061;0.06911392,-0.59235084,8.170403,-0.2233851,0.074227214,-0.17800456,7.540686,-4.812828,6.0505652,305.21985,0.0,0.0,0.0,0.0,1006.41,29.3,57.10218,73.608154,57.33623,0.73608154,-3.806852,-0.81566775,0.04455108,-4.1465178,-0.48338816,-0.333782,0.3760473,-0.104413144,4.650696
18:27:28.070;0.03996824,-0.60412526,8.16821,-0.2233851,0.13526237,0.06613606,7.596549,-4.8622622,6.054852,305.14606,0.0,0.0,0.0,0.0,1006.41,29.3,57.10218,73.608154,57.33623,0.73608154,-3.8886776,-0.64036417,0.006074693,-4.229875,-0.2795907,-0.33601585,0.37739995,-0.10619319,4.7244873
18:27:28.081;0.016651703,-0.61354476,8.166456,-0.2233851,0.13526237,0.06613606,7.641239,-4.9018097,6.0582814,305.0879,0.0,0.0,0.0,0.0,1006.41,29.3,57.10218,73.608154,57.33623,0.73608154,-3.9311714,-0.49781808,-0.020612247,-4.2965436,-0.1164997,-0.33847308,0.37888783,-0.105465695,4.782654
18:27:28.091;-0.0020015296,-0.6210804,8.165052,-0.2233851,0.13526237,0.06613606,7.6769915,-4.933448,6.061025,305.0419,0.0,0.0,0.0,0.0,1006.41,29.3,57.10218,73.608154,57.33623,0.73608154,-3.9648628,-0.38376033,-0.039746363,-4.349867,0.014004669,-0.34048355,0.3801052,-0.10487047,4.828644
18:27:28.100;-0.02458556,-0.63477033,8.140945,-0.2233851,0.074227214,0.06613606,7.705593,-4.9587584,6.06322,305.00543,0.0,0.0,0.0,0.0,1006.43,29.3,56.93572,73.608154,57.33623,0.73608154,-4.051211,-0.24978925,-0.05374348,-4.4584575,0.17250845,-0.3427174,0.38084748,-0.10420911,4.8651123
18:27:28.110;-0.042652786,-0.64572227,8.12166,-0.2233851,0.074227214,0.06613606,7.7284746,-4.979007,6.064976,304.9765,0.0,0.0,0.0,0.0,1006.43,29.3,56.93572,73.608154,57.33623,0.73608154,-4.116372,-0.14160547,-0.064180285,-4.5457444,0.2999528,-0.34495127,0.38158977,-0.10354775,4.894043
18:27:28.121;-0.057106566,-0.65448385,8.106232,-0.2233851,0.074227214,0.06613606,7.74678,-4.9952054,6.066381,304.95346,0.0,0.0,0.0,0.0,1006.43,29.3,56.93572,73.608154,57.33623,0.73608154,-4.16864,-0.054701775,-0.07201295,-4.6158404,0.40232,-0.34718513,0.38233206,-0.10288639,4.9170837
18:27:28.131;-0.08399248,-0.63084733,8.078566,-0.040279627,-0.108878255,0.005100906,7.779824,-4.989764,6.030705,305.09283,0.0,0.0,0.0,0.0,1006.43,29.3,56.93572,73.608154,57.33623,0.73608154,-4.0238934,0.13198689,-0.15680589,-4.46487,0.59387237,-0.34758794,0.3812433,-0.102225035,4.77771
18:27:28.140;-0.10550121,-0.6119381,8.056433,-0.040279627,-0.108878255,0.005100906,7.806259,-4.9854116,6.002164,305.20377,0.0,0.0,0.0,0.0,1006.37,29.3,57.43775,73.608154,57.33623,0.73608154,-3.8957875,0.28360817,-0.18495566,-4.343273,0.7481065,-0.34799075,0.38015452,-0.10217403,4.6667786
18:27:28.151;-0.122708194,-0.59681076,8.038727,-0.040279627,-0.108878255,0.005100906,7.8274074,-4.9819293,5.979331,305.29218,0.0,0.0,0.0,0.0,1006.37,29.3,57.43775,73.608154,57.33623,0.73608154,-3.7926006,0.405549,-0.18774405,-4.245468,0.8721311,-0.34839356,0.37906575,-0.10212302,4.578369
18:27:28.161;-0.12115089,-0.58470887,8.039885,-0.16234994,0.13526237,-0.23903972,7.844326,-4.9791436,5.961065,305.3627,0.0,0.0,0.0,0.0,1006.37,29.3,57.43775,73.608154,57.33623,0.73608154,-3.7028143,0.4047996,-0.18016854,-4.159101,0.8610359,-0.3501794,0.38055363,-0.10206691,4.507843
18:27:28.171;-0.11990505,-0.57502735,8.040812,-0.16234994,0.13526237,-0.23903972,7.857861,-4.976915,5.9464517,305.41898,0.0,0.0,0.0,0.0,1006.37,29.3,57.43775,73.608154,57.33623,0.73608154,-3.6406915,0.40300897,-0.17045014,-4.09001,0.8521587,-0.35180292,0.38190627,-0.10445731,4.4515686
18:27:28.181;-0.118908376,-0.56728214,8.041553,-0.16234994,0.13526237,-0.23903972,7.868689,-4.975132,5.9347615,305.4639,0.0,0.0,0.0,0.0,1006.37,29.3,57.43775,73.608154,57.33623,0.73608154,-3.5911283,0.4015732,-0.16110986,-4.034741,0.8450565,-0.35342643,0.3832589,-0.10684771,4.4066467
18:27:28.191;-0.16407971,-0.5687474,8.057468,-0.10131478,0.31836784,-0.17800456,7.8589516,-5.0105057,5.9438095,305.2481,0.0,0.0,0.0,0.0,1006.37,29.3,57.43775,73.608154,57.33623,0.73608154,-3.5930266,0.6883112,-0.027159568,-4.03677,1.1636971,-0.35433826,0.38612422,-0.108999066,4.6224365
18:27:28.202;-0.20021677,-0.5699196,8.070201,-0.10131478,0.31836784,-0.17800456,7.8511615,-5.0388045,5.951048,305.07584,0.0,0.0,0.0,0.0,1006.37,29.3,57.43775,73.608154,57.33623,0.73608154,-3.5657578,0.9196936,0.01698852,-4.038297,1.4176526,-0.35555404,0.38994464,-0.11113512,4.7947083
18:27:28.213;-0.18315776,-0.58618027,8.088049,0.02075553,0.379403,0.18820637,7.844929,-5.061444,5.9568386,304.93826,0.0,0.0,0.0,0.0,1006.37,29.3,57.43775,73.608154,57.33623,0.73608154,-3.6377854,0.80112743,0.020734295,-4.1441975,1.2938763,-0.35532573,0.39411807,-0.11309317,4.9322815
18:27:28.224;-0.16951054,-0.5991888,8.102327,0.02075553,0.379403,0.18820637,7.8399434,-5.079555,5.961471,304.82834,0.0,0.0,0.0,0.0,1006.41,29.3,57.10218,73.608154,57.33623,0.73608154,-3.725564,0.70359445,0.009817857,-4.228555,1.1952596,-0.3550974,0.3982915,-0.1110229,5.042206
18:27:28.236;-0.15859278,-0.6095956,8.1137495,0.02075553,0.379403,0.18820637,7.8359547,-5.094044,5.965177,304.74048,0.0,0.0,0.0,0.0,1006.41,29.3,57.10218,73.608154,57.33623,0.73608154,-3.7958443,0.6258328,-0.0055432282,-4.2958097,1.1166245,-0.35484836,0.40284434,-0.10876442,5.130066
18:27:28.245;-0.18050434,-0.60259813,8.1305485,-0.2233851,0.074227214,0.005100906,7.8327637,-5.0872355,5.9681416,304.76483,0.0,0.0,0.0,0.0,1006.41,29.3,57.10218,73.608154,57.33623,0.73608154,-3.7515516,0.7664025,-0.068483405,-4.2377043,1.2683232,-0.35685882,0.4035124,-0.10707056,5.105713
18:27:28.255;-0.19803359,-0.5970002,8.143988,-0.2233851,0.074227214,0.005100906,7.830211,-5.0817885,5.9705133,304.78433,0.0,0.0,0.0,0.0,1006.41,29.3,57.10218,73.608154,57.33623,0.73608154,-3.6958156,0.8808036,-0.097501844,-4.1913695,1.3892343,-0.35909268,0.40425467,-0.10701955,5.086212
18:27:28.266;-0.212057,-0.59252185,8.154739,-0.2233851,0.074227214,0.005100906,7.828169,-5.0774307,5.9724107,304.79996,0.0,0.0,0.0,0.0,1006.47,29.3,56.60015,73.608154,57.33623,0.73608154,-3.6511235,0.9720786,-0.11004514,-4.154398,1.485677,-0.3615499,0.40507117,-0.10696344,5.070587
18:27:28.275;-0.19262993,-0.5812777,8.125033,0.02075553,-0.0478431,-0.36111003,7.826535,-5.0739446,5.9739285,304.81247,0.0,0.0,0.0,0.0,1006.47,29.3,56.60015,73.608154,57.33623,0.73608154,-3.5845952,0.86069536,-0.114737436,-4.0909133,1.3546644,-0.3613631,0.4046406,-0.10691753,5.058075
18:27:28.285;-0.17708829,-0.57228243,8.101269,0.02075553,-0.0478431,-0.36111003,7.825228,-5.0711555,5.975143,304.82248,0.0,0.0,0.0,0.0,1006.47,29.3,56.60015,73.608154,57.33623,0.73608154,-3.5496955,0.769205,-0.11763792,-4.039762,1.249136,-0.36115557,0.40416217,-0.11052863,5.048065
18:27:28.295;-0.16465497,-0.5650862,8.082257,0.02075553,-0.0478431,-0.36111003,7.8241825,-5.0689244,5.9761143,304.8305,0.0,0.0,0.0,0.0,1006.47,29.3,56.60015,73.608154,57.33623,0.73608154,-3.5218046,0.69559634,-0.11990189,-3.9986064,1.1642497,-0.36094803,0.40368375,-0.114139736,5.040039
18:27:28.306;-0.14704686,-0.5746521,8.074709,0.02075553,0.25733268,-0.05593425,7.768146,-4.9199395,5.9584913,305.41977,0.0,0.0,0.0,0.0,1006.41,29.3,57.10218,73.608154,57.33623,0.73608154,-3.5934424,0.5775282,-0.4136389,-4.070028,1.0406549,-0.3607197,0.4065144,-0.118111946,4.450775
18:27:28.315;-0.13296038,-0.5823048,8.06867,0.02075553,0.25733268,-0.05593425,7.723317,-4.8007517,5.944393,305.90308,0.0,0.0,0.0,0.0,1006.41,29.3,57.10218,73.608154,57.33623,0.73608154,-3.6567469,0.4820151,-0.50778055,-4.1272426,0.94162023,-0.3605329,0.4088304,-0.11861535,3.9674683
18:27:28.326;-0.1216912,-0.58842695,8.06384,0.02075553,0.25733268,-0.05593425,7.6874537,-4.7054014,5.9331145,306.2975,0.0,0.0,0.0,0.0,1006.41,29.3,57.10218,73.608154,57.33623,0.73608154,-3.7075346,0.40556583,-0.5106822,-4.1730633,0.8622911,-0.36032537,0.41140375,-0.1191747,3.573059
18:27:28.335;-0.112675846,-0.6009861,8.052314,0.02075553,0.19629753,0.432347,7.658763,-4.6291213,5.924092,306.61816,0.0,0.0,0.0,0.0,1006.41,29.3,57.10218,73.608154,57.33623,0.73608154,-3.8005798,0.3396549,-0.4755475,-4.2679524,0.7994629,-0.36011782,0.41336673,-0.11973404,3.2523804
18:27:28.345;-0.105463564,-0.6110335,8.043093,0.02075553,0.19629753,0.432347,7.6358104,-4.568097,5.9168735,306.878,0.0,0.0,0.0,0.0,1006.47,29.3,56.60015,73.608154,57.33623,0.73608154,-3.875651,0.2868023,-0.42539236,-4.3440413,0.749079,-0.35991028,0.41532972,-0.115410574,2.9925537
18:27:28.355;-0.099693745,-0.61907136,8.035716,0.02075553,0.19629753,0.432347,7.6174483,-4.5192776,5.911099,307.088,0.0,0.0,0.0,0.0,1006.47,29.3,56.60015,73.608154,57.33623,0.73608154,-3.9358222,0.24443871,-0.37325072,-4.405026,0.7086941,-0.35970274,0.4172927,-0.111087106,2.7825317
18:27:28.366;-0.08741644,-0.61017877,8.052799,-0.10131478,0.074227214,0.06613606,7.6947584,-4.425022,5.9432793,307.8659,0.0,0.0,0.0,0.0,1006.47,29.3,56.60015,73.608154,57.33623,0.73608154,-3.875274,0.17070466,-0.62873757,-4.332896,0.62016714,-0.3608172,0.4181092,-0.10633129,2.0046387
18:27:28.375;-0.0775946,-0.6030647,8.066465,-0.10131478,0.074227214,0.06613606,7.7566066,-4.349618,5.969023,308.48572,0.0,0.0,0.0,0.0,1006.47,29.3,56.60015,73.608154,57.33623,0.73608154,-3.830875,0.11161983,-0.6771428,-4.2753935,0.5496006,-0.36172903,0.41877726,-0.10573606,1.3848267
18:27:28.385;-0.06973713,-0.5973734,8.077398,-0.10131478,0.074227214,0.06613606,7.806085,-4.2892942,5.989619,308.97986,0.0,0.0,0.0,0.0,1006.37,29.3,57.43775,73.608154,57.33623,0.73608154,-3.7955062,0.064502686,-0.63817906,-4.229519,0.4933101,-0.3627422,0.41951954,-0.1050747,0.89068604
18:27:28.395;-0.06345115,-0.5928204,8.078484,0.02075553,0.13526237,-0.30007488,7.845668,-4.2410355,6.006095,309.37405,0.0,0.0,0.0,0.0,1006.37,29.3,57.43775,73.608154,57.33623,0.73608154,-3.7707062,0.026988685,-0.568394,-4.1968637,0.4488045,-0.36253464,0.42087218,-0.104413345,0.49649048
18:27:28.405;-0.058422364,-0.589178,8.079351,0.02075553,0.13526237,-0.30007488,7.877334,-4.2024283,6.019276,309.68863,0.0,0.0,0.0,0.0,1006.37,29.3,57.43775,73.608154,57.33623,0.73608154,-3.7509477,-0.003074646,-0.49519163,-4.1707416,0.41320544,-0.3623271,0.42222482,-0.1074141,0.18191528
18:27:28.416;-0.054399338,-0.5862641,8.080046,0.02075553,0.13526237,-0.30007488,7.902667,-4.1715426,6.029821,309.93982,0.0,0.0,0.0,0.0,1006.37,29.3,57.43775,73.608154,57.33623,0.73608154,-3.7351472,-0.027122736,-0.42839834,-4.149845,0.3847297,-0.36211956,0.42357746,-0.11041485,-0.0692749
18:27:28.425;-0.051180914,-0.58393294,8.07294,-0.28442025,0.13526237,-0.11696941,7.8861337,-4.1836343,6.0382566,309.82166,0.0,0.0,0.0,0.0,1006.35,29.3,57.604214,73.608154,57.33623,0.73608154,-3.7263305,-0.046434045,-0.21182494,-4.1370378,0.36229306,-0.36496377,0.4249301,-0.1134156,0.04888916
18:27:28.435;-0.048606176,-0.582068,8.067255,-0.28442025,0.13526237,-0.11696941,7.872907,-4.1933074,6.0450053,309.72693,0.0,0.0,0.0,0.0,1006.35,29.3,57.604214,73.608154,57.33623,0.73608154,-3.7190256,-0.061884105,-0.115841836,-4.1267753,0.3443147,-0.36780798,0.42628273,-0.114585295,0.14361572
18:27:28.446;-0.046546385,-0.5805761,8.062708,-0.28442025,0.13526237,-0.11696941,7.8623257,-4.201046,6.050404,309.65106,0.0,0.0,0.0,0.0,1006.35,29.3,57.604214,73.608154,57.33623,0.73608154,-3.7131994,-0.07424918,-0.07792355,-4.1185536,0.32991332,-0.3709366,0.4277706,-0.11587196,0.21948242
18:27:28.456;-0.044898555,-0.5793826,8.05907,0.14282584,0.19629753,0.18820637,7.853861,-4.207237,6.0547233,309.5903,0.0,0.0,0.0,0.0,1006.35,29.3,57.604214,73.608154,57.33623,0.73608154,-3.708069,-0.08408797,-0.06704387,-4.11197,0.3183803,-0.36965117,0.4295373,-0.11692468,0.28024292
18:27:28.465;-0.04358029,-0.57842773,8.056159,0.14282584,0.19629753,0.18820637,7.847089,-4.2121897,6.0581784,309.54163,0.0,0.0,0.0,0.0,1006.35,29.3,57.604214,73.608154,57.33623,0.73608154,-3.7042942,-0.09200156,-0.06670548,-4.106698,0.30914623,-0.36822292,0.4315003,-0.11504262,0.32891846
18:27:28.476;-0.04252568,-0.57766384,8.053831,0.14282584,0.19629753,0.18820637,7.841671,-4.2161517,6.0609426,309.5027,0.0,0.0,0.0,0.0,1006.35,29.3,57.604214,73.608154,57.33623,0.73608154,-3.7012866,-0.09835374,-0.07046281,-4.102477,0.30175406,-0.36679468,0.43346328,-0.11316056,0.3678589
18:27:28.486;-0.04168199,-0.5847142,8.044307,0.02075553,-0.108878255,0.18820637,7.837337,-4.2193213,6.063154,309.4715,0.0,0.0,0.0,0.0,1006.35,29.3,57.604214,73.608154,57.33623,0.73608154,-3.7513597,-0.108768255,-0.075182065,-4.1572747,0.29609722,-0.36656636,0.4322656,-0.11109029,0.39904785
18:27:28.496;-0.04100704,-0.59035444,8.036688,0.02075553,-0.108878255,0.18820637,7.83387,-4.221857,6.0649233,309.44653,0.0,0.0,0.0,0.0,1006.35,29.3,57.604214,73.608154,57.33623,0.73608154,-3.7919364,-0.11689633,-0.07971346,-4.2012005,0.29156247,-0.36635882,0.43117684,-0.109208226,0.42401123
18:27:28.507;-0.040467076,-0.5948667,8.030592,0.02075553,-0.108878255,0.18820637,7.831096,-4.2238855,6.0663385,309.42657,0.0,0.0,0.0,0.0,1006.47,29.3,56.60015,73.608154,57.33623,0.73608154,-3.8244271,-0.12341577,-0.08354056,-4.236398,0.28792873,-0.36615127,0.43008807,-0.107326165,0.44396973
18:27:28.516;-0.040035106,-0.590815,8.0487,-0.10131478,0.074227214,0.005100906,7.828877,-4.2071085,6.0306706,309.51498,0.0,0.0,0.0,0.0,1006.47,29.3,56.60015,73.608154,57.33623,0.73608154,-3.7908275,-0.12321043,-0.13879114,-4.1982164,0.28422835,-0.3670631,0.43075612,-0.105632305,0.3555603
18:27:28.526;-0.03968953,-0.5875737,8.063187,-0.10131478,0.074227214,0.005100906,7.8271017,-4.193687,6.0021367,309.58585,0.0,0.0,0.0,0.0,1006.47,29.3,56.60015,73.608154,57.33623,0.73608154,-3.7634456,-0.12311122,-0.15761457,-4.1677923,0.28127965,-0.36817756,0.43157262,-0.105576195,0.2846985
18:27:28.537;-0.03941307,-0.58498067,8.074776,-0.10131478,0.074227214,0.005100906,7.8256817,-4.1829495,5.9793096,309.6426,0.0,0.0,0.0,0.0,1006.47,29.3,56.60015,73.608154,57.33623,0.73608154,-3.7415993,-0.12304297,-0.15994868,-4.14353,0.27892813,-0.36929202,0.4323891,-0.105520085,0.22793579
18:27:28.547;-0.0391919,-0.5829062,8.084047,-0.10131478,0.074227214,0.005100906,7.8245454,-4.17436,5.9610476,309.6881,0.0,0.0,0.0,0.0,1006.41,29.3,57.10218,73.608154,57.33623,0.73608154,-3.724157,-0.12299505,-0.15545973,-4.1241684,0.2770516,-0.37030518,0.4331314,-0.10546908,0.18243408
18:27:28.557;-0.039014965,-0.5812466,8.06848,-0.10131478,0.25733268,-0.23903972,7.8236365,-4.1674876,5.9464383,309.72452,0.0,0.0,0.0,0.0,1006.41,29.3,57.10218,73.608154,57.33623,0.73608154,-3.720738,-0.12311563,-0.14864263,-4.1203747,0.2763343,-0.37131834,0.43570474,-0.10541807,0.14602661
18:27:28.568;-0.03887342,-0.579919,8.0560255,-0.10131478,0.25733268,-0.23903972,7.8229094,-4.16199,5.9347506,309.7537,0.0,0.0,0.0,0.0,1006.41,29.3,57.10218,73.608154,57.33623,0.73608154,-3.7180192,-0.123336226,-0.14293247,-4.117329,0.27575848,-0.3724328,0.4385354,-0.10804751,0.11685181
18:27:28.578;-0.03876018,-0.5788569,8.046062,-0.10131478,0.25733268,-0.23903972,7.8223276,-4.1575923,5.9254003,309.77704,0.0,0.0,0.0,0.0,1006.41,29.3,57.10218,73.608154,57.33623,0.73608154,-3.7158325,-0.12355909,-0.13835816,-4.1148863,0.2752965,-0.37344596,0.44110873,-0.11043791,0.09350586
18:27:28.588;-0.031008145,-0.5933301,8.0457535,0.02075553,-0.0478431,-0.11696941,7.821862,-4.135674,5.9363203,309.90094,0.0,0.0,0.0,0.0,1006.41,29.3,57.10218,73.608154,57.33623,0.73608154,-3.8081598,-0.18266809,-0.18754393,-4.217583,0.22021751,-0.3732384,0.44063032,-0.11282831,-0.030395508
18:27:28.598;-0.024806516,-0.60490865,8.0455065,0.02075553,-0.0478431,-0.11696941,7.82149,-4.1181393,5.9450564,310.0003,0.0,0.0,0.0,0.0,1006.41,29.3,57.10218,73.608154,57.33623,0.73608154,-3.8879979,-0.23030281,-0.20045358,-4.2997246,0.17616093,-0.37303087,0.4401519,-0.113998,-0.12976074
18:27:28.608;-0.019845214,-0.6141715,8.045309,0.02075553,-0.0478431,-0.11696941,7.821192,-4.1041117,5.9520454,310.0799,0.0,0.0,0.0,0.0,1006.41,29.3,57.10218,73.608154,57.33623,0.73608154,-3.9518938,-0.26840913,-0.19760557,-4.365427,0.14092012,-0.37282333,0.43967348,-0.1151677,-0.20935059
18:27:28.618;-0.031199062,-0.60625887,8.045151,-0.040279627,0.013192058,0.18820637,7.8209534,-4.0928893,5.9576364,310.1437,0.0,0.0,0.0,0.0,1006.41,29.3,57.10218,73.608154,57.33623,0.73608154,-3.9053986,-0.19111955,-0.1888776,-4.309464,0.22156349,-0.37322614,0.43980542,-0.116337396,-0.27316284
18:27:28.628;-0.04028214,-0.5999288,8.045024,-0.040279627,0.013192058,0.18820637,7.8207626,-4.0839114,5.962109,310.19476,0.0,0.0,0.0,0.0,1006.47,29.3,56.60015,73.608154,57.33623,0.73608154,-3.8573644,-0.12824383,-0.17719442,-4.2646804,0.28608826,-0.37362894,0.43993735,-0.114455335,-0.32421875
18:27:28.638;-0.047548603,-0.5948647,8.044923,-0.040279627,0.013192058,0.18820637,7.82061,-4.0767293,5.9656873,310.2357,0.0,0.0,0.0,0.0,1006.47,29.3,56.60015,73.608154,57.33623,0.73608154,-3.818825,-0.07792643,-0.16534588,-4.228845,0.3377143,-0.37403175,0.4400693,-0.11257327,-0.36514282
18:27:28.648;-0.045700327,-0.59081346,8.044842,-0.10131478,-0.108878255,0.12717122,7.820488,-4.0893836,5.95015,310.16248,0.0,0.0,0.0,0.0,1006.47,29.3,56.60015,73.608154,57.33623,0.73608154,-3.7880707,-0.08677378,-0.10141271,-4.2001963,0.32460243,-0.3750449,0.43898052,-0.11069121,-0.29193115
18:27:28.658;-0.044221707,-0.58757246,8.044777,-0.10131478,-0.108878255,0.12717122,7.8203907,-4.099507,5.93772,310.10394,0.0,0.0,0.0,0.0,1006.47,29.3,56.60015,73.53904,57.33554,0.7353904,-3.768326,-0.094240725,-0.07614975,-4.1772747,0.31411198,-0.37605807,0.43789175,-0.1094195,-0.23339844
18:27:28.668;-0.04303881,-0.58497965,8.044725,-0.10131478,-0.108878255,0.12717122,7.8203125,-4.1076055,5.927776,310.0572,0.0,0.0,0.0,0.0,1006.43,29.3,56.93572,73.53904,57.33554,0.7353904,-3.7525675,-0.100218594,-0.0687723,-4.158936,0.30571896,-0.37707123,0.43680298,-0.10814779,-0.18664551
18:27:28.678;-0.042092495,-0.5829054,8.052345,0.02075553,-0.0478431,-0.23903972,7.82025,-4.1140842,5.919821,310.0198,0.0,0.0,0.0,0.0,1006.43,29.3,56.93572,73.53904,57.33554,0.7353904,-3.736303,-0.1048291,-0.06913218,-4.1403356,0.2987212,-0.3768637,0.43632457,-0.10687608,-0.14926147
18:27:28.688;-0.04133544,-0.581246,8.058441,0.02075553,-0.0478431,-0.23903972,7.8202,-4.1192675,5.9134564,309.98993,0.0,0.0,0.0,0.0,1006.43,29.3,56.93572,73.53904,57.33554,0.7353904,-3.7233937,-0.10856822,-0.07426098,-4.1254797,0.29313225,-0.37665614,0.43584615,-0.10926648,-0.119384766
18:27:28.698;-0.0407298,-0.5799185,8.063318,0.02075553,-0.0478431,-0.23903972,7.82016,-4.123414,5.9083652,309.96603,0.0,0.0,0.0,0.0,1006.43,29.3,56.93572,73.53904,57.33554,0.7353904,-3.7130852,-0.11155611,-0.081011295,-4.1136103,0.28866696,-0.3764486,0.43536773,-0.11165688,-0.0954895
18:27:28.708;-0.03258384,-0.57885647,8.090204,-0.2233851,-0.0478431,-0.05593425,7.801728,-4.108331,5.9226923,309.99686,0.0,0.0,0.0,0.0,1006.49,29.3,56.433685,73.53904,57.33554,0.7353904,-3.6946487,-0.1623571,-0.11294067,-4.092522,0.23017293,-0.37868246,0.43488932,-0.11404728,-0.12631226
18:27:28.718;-0.026067073,-0.57800686,8.111712,-0.2233851,-0.0478431,-0.05593425,7.786982,-4.096265,5.934154,310.02164,0.0,0.0,0.0,0.0,1006.49,29.3,56.433685,73.608154,57.33623,0.73608154,-3.684633,-0.20322229,-0.12616378,-4.075749,0.18365431,-0.38091633,0.4344109,-0.11460663,-0.15109253
18:27:28.728;-0.020853657,-0.5773272,8.12892,-0.2233851,-0.0478431,-0.05593425,7.7751856,-4.0866117,5.943323,310.04156,0.0,0.0,0.0,0.0,1006.49,29.3,56.433685,73.608154,57.33623,0.73608154,-3.6766982,-0.23576415,-0.13062887,-4.0623918,0.14661504,-0.3831502,0.43393248,-0.11516597,-0.17102051
18:27:28.738;-0.024344372,-0.5767834,8.127362,-0.28442025,-0.0478431,-0.11696941,7.7657485,-4.0788894,5.950659,310.05753,0.0,0.0,0.0,0.0,1006.49,29.3,56.433685,73.608154,57.33623,0.73608154,-3.6772745,-0.21370395,-0.13115744,-4.0593486,0.1711904,-0.3859944,0.43345407,-0.115725316,-0.1869812
18:27:28.748;-0.027136942,-0.5763484,8.126116,-0.28442025,-0.0478431,-0.11696941,7.7581987,-4.0727115,5.956527,310.07034,0.0,0.0,0.0,0.0,1006.37,29.3,57.43775,73.608154,57.33623,0.73608154,-3.6728764,-0.19556372,-0.13043492,-4.056913,0.19085754,-0.38883862,0.43297565,-0.11689501,-0.19979858
18:27:28.758;-0.029370999,-0.5760004,8.125119,-0.28442025,-0.0478431,-0.11696941,7.752159,-4.067769,5.9612217,310.0806,0.0,0.0,0.0,0.0,1006.37,29.3,57.43775,73.608154,57.33623,0.73608154,-3.6693075,-0.18104254,-0.12937677,-4.054963,0.20659564,-0.39168283,0.43249723,-0.11806471,-0.21005249
18:27:28.769;-0.031158244,-0.575722,8.124322,-0.2233851,0.074227214,0.12717122,7.784127,-4.1006155,5.9465775,309.9879,0.0,0.0,0.0,0.0,1006.37,29.3,57.43775,73.608154,57.33623,0.73608154,-3.6664119,-0.16928948,-0.07802313,-4.0534024,0.21918894,-0.39414006,0.43331373,-0.11935137,-0.117370605
18:27:28.779;-0.032588042,-0.57549924,8.123684,-0.2233851,0.074227214,0.12717122,7.809702,-4.1268926,5.934862,309.91443,0.0,0.0,0.0,0.0,1006.37,29.3,57.43775,73.608154,57.33623,0.73608154,-3.6640685,-0.16000117,-0.061371814,-4.052154,0.2292654,-0.39615053,0.43398178,-0.11820683,-0.043884277
18:27:28.788;-0.033731878,-0.5753211,8.123174,-0.2233851,0.074227214,0.12717122,7.8301616,-4.147914,5.92549,309.85608,0.0,0.0,0.0,0.0,1006.35,29.3,57.604214,73.608154,57.33623,0.73608154,-3.662263,-0.15255716,-0.059978664,-4.051155,0.2373277,-0.3983844,0.43472406,-0.11693512,0.014465332
18:27:28.798;-0.034646947,-0.5905014,8.107443,-0.040279627,0.25733268,-0.05593425,7.8465295,-4.164731,5.917992,309.80963,0.0,0.0,0.0,0.0,1006.35,29.3,57.604214,73.608154,57.33623,0.73608154,-3.764439,-0.15640327,-0.06459716,-4.1657147,0.24420367,-0.3987872,0.4372974,-0.11566341,0.060913086
18:27:28.810;-0.035379004,-0.6026457,8.094858,-0.040279627,0.25733268,-0.05593425,7.8596234,-4.178185,5.9119935,309.77264,0.0,0.0,0.0,0.0,1006.35,29.3,57.604214,73.608154,57.33623,0.73608154,-3.8475776,-0.1597253,-0.07194427,-4.257659,0.24972156,-0.39923027,0.44012806,-0.116278686,0.09790039
18:27:28.820;-0.03596465,-0.61236113,8.08479,-0.040279627,0.25733268,-0.05593425,7.8700986,-4.188948,5.9071946,309.74316,0.0,0.0,0.0,0.0,1006.35,29.3,57.604214,73.608154,57.33623,0.73608154,-3.914281,-0.1624129,-0.079679124,-4.3314047,0.2541468,-0.39967334,0.4429587,-0.11689396,0.12738037
18:27:28.829;-0.036433164,-0.6048106,8.092058,-0.2233851,0.13526237,-0.11696941,7.878479,-4.1975584,5.9033556,309.71967,0.0,0.0,0.0,0.0,1006.43,29.3,56.93572,73.608154,57.33623,0.73608154,-3.8633509,-0.15470582,-0.08676101,-4.274368,0.2572456,-0.4014604,0.4440408,-0.11734144,0.1508789
18:27:28.839;-0.036807977,-0.59877014,8.097873,-0.2233851,0.13526237,-0.11696941,7.8851833,-4.204447,5.9002843,309.7009,0.0,0.0,0.0,0.0,1006.43,29.3,56.93572,73.608154,57.33623,0.73608154,-3.8216188,-0.14827795,-0.093251914,-4.2288055,0.25972077,-0.40369427,0.44539344,-0.11851113,0.16964722
18:27:28.849;-0.037107825,-0.5939378,8.102525,-0.2233851,0.13526237,-0.11696941,7.890547,-4.2099576,5.8978276,309.6859,0.0,0.0,0.0,0.0,1006.43,29.3,56.93572,73.608154,57.33623,0.73608154,-3.788233,-0.14314596,-0.09903279,-4.1923995,0.2616984,-0.4061515,0.44688132,-0.119797796,0.18463135
18:27:28.859;-0.037347704,-0.5900719,8.098585,-0.16234994,-0.23094857,-0.05593425,7.8764377,-4.1959662,5.895862,309.72253,0.0,0.0,0.0,0.0,1006.43,29.3,56.93572,73.53904,57.33554,0.7353904,-3.7649643,-0.1395303,-0.12825221,-4.1672263,0.26352668,-0.40761265,0.4448028,-0.12085052,0.14801025
18:27:28.870;-0.03753961,-0.5869792,8.095433,-0.16234994,-0.23094857,-0.05593425,7.8651505,-4.184773,5.8942895,309.75192,0.0,0.0,0.0,0.0,1006.49,29.3,56.433685,73.53904,57.33554,0.7353904,-3.7465098,-0.13643654,-0.13958117,-4.147069,0.26499066,-0.40956086,0.4420314,-0.121521726,0.118621826
18:27:28.880;-0.03769313,-0.584505,8.092912,-0.16234994,-0.23094857,-0.05593425,7.8561206,-4.1758184,5.8930316,309.7755,0.0,0.0,0.0,0.0,1006.49,29.3,56.433685,73.53904,57.33554,0.7353904,-3.731644,-0.13384897,-0.14262617,-4.130931,0.26616266,-0.41118437,0.43972194,-0.12208107,0.09503174
18:27:28.889;-0.045477398,-0.59018713,8.090895,-0.10131478,0.074227214,0.18820637,7.8488965,-4.168655,5.8920255,309.79443,0.0,0.0,0.0,0.0,1006.49,29.3,56.433685,73.53904,57.33554,0.7353904,-3.7682428,-0.08768463,-0.14206576,-4.171963,0.32119206,-0.4120962,0.44039,-0.12258448,0.07611084
18:27:28.900;-0.05170481,-0.5947328,8.089281,-0.10131478,0.074227214,0.18820637,7.843117,-4.162924,5.8912206,309.8096,0.0,0.0,0.0,0.0,1006.49,29.3,56.433685,76.09633,57.361115,0.76096326,-3.7931979,-0.050530583,-0.1388736,-4.2047977,0.36523062,-0.41321066,0.44120649,-0.12051421,0.060943604
18:27:28.911;-0.049025293,-0.6060308,8.072667,0.02075553,-0.0478431,0.005100906,7.8200936,-4.176739,5.9089766,309.66098,0.0,0.0,0.0,0.0,1006.47,29.3,56.60015,76.09633,57.361115,0.76096326,-3.868886,-0.07466233,-0.05434847,-4.2931733,0.34697655,-0.41298234,0.4406802,-0.118443936,0.20956421
18:27:28.922;-0.04688168,-0.6150692,8.059376,0.02075553,-0.0478431,0.005100906,7.801675,-4.1877913,5.9231815,309.54175,0.0,0.0,0.0,0.0,1006.47,29.3,56.60015,76.09633,57.361115,0.76096326,-3.935153,-0.09447855,-0.026752058,-4.364122,0.33232152,-0.41275403,0.44015393,-0.118387826,0.3287964
18:27:28.934;-0.04516679,-0.62229997,8.048742,0.02075553,-0.0478431,0.005100906,7.78694,-4.1966333,5.9345455,309.44617,0.0,0.0,0.0,0.0,1006.47,29.3,56.60015,76.09633,57.361115,0.76096326,-3.988359,-0.11038548,-0.024748806,-4.42104,0.32056427,-0.41250497,0.4395798,-0.11832661,0.42437744
18:27:28.943;-0.03613343,-0.6204231,8.047897,-0.2233851,0.379403,-0.17800456,7.775152,-4.2037067,5.9436364,309.36954,0.0,0.0,0.0,0.0,1006.47,29.3,56.60015,76.09633,57.361115,0.76096326,-3.9786592,-0.16668911,-0.033199936,-4.408244,0.2564837,-0.41451544,0.44299445,-0.1182807,0.5010071
18:27:28.953;-0.028906744,-0.6189216,8.047221,-0.2233851,0.379403,-0.17800456,7.765722,-4.2093654,5.950909,309.30817,0.0,0.0,0.0,0.0,1006.47,29.3,56.60015,76.09633,57.361115,0.76096326,-3.9750936,-0.21244322,-0.045944918,-4.3980017,0.20520753,-0.4167493,0.4467885,-0.12006075,0.5623779
