20:18:39.816;X[m/s²],Y[m/s²],Z[m/s²],X[°/s],Y[°/s],Z[°/s],X[µT],Y[µT],Z[µT],Direção[°],R1[µsec],R2[µsec],R3[µsec],R4[µsec],R1[RPM],R2[RPM],R3[RPM],R4[RPM],Baro[hPa],Baro[°C],Baro[m],Down[cm],Abs[m],Rel[m],X [°],Y [°],Z [°],Acce X[°],Acce Y[°],Gyro X[°],Gyro Y[°],Gyro Z[°],Mag Z[°]
20:18:39.816;-0.19153613,-0.38307226,8.121132,-1.6479492,0.91552734,0.24414063,10.58,-21.206,6.9920006,244.10333,1000,1000,1000,1000,0.0,0.0,0.0,0.0,1013.19995,26.2,0.41747928,9999999.0,0.41747928,99999.99,-0.053997543,0.026991274,0.0,-2.6998796,1.349565,0.0,0.0,0.0,0.0
20:18:39.828;-0.076614454,-0.49799395,8.0445175,-1.8310547,0.9765625,0.0,10.58,-21.206,6.9920006,244.10333,1000,1000,1000,1000,0.0,0.0,0.0,0.0,1013.16,26.2,0.7504058,9999999.0,0.7504058,9999999.0,-0.14888361,0.05074218,0.0033496094,-3.542201,0.54461515,-0.025634766,0.013671875,0.0034179688,0.0
20:18:39.842;-0.076614454,-0.5746084,8.00621,-1.7700195,0.8544922,0.18310547,10.58,-21.206,6.9920006,244.10333,1000,1000,1000,1000,0.0,0.0,0.0,0.0,1013.16,26.2,0.7504058,9999999.0,0.7504058,9999999.0,-0.25402337,0.073225595,0.0032826173,-4.1049113,0.5468617,-0.05218506,0.026489258,0.0034179688,0.0
20:18:39.856;-0.15322891,-0.5363012,8.0445175,-1.8310547,1.2207031,0.061035156,10.58,-21.113997,6.9920006,244.09393,1000,1000,1000,1000,0.0,0.0,0.0,0.0,1013.1,26.2,1.2497956,9999999.0,1.2497956,9999999.0,-0.35033262,0.11028511,0.00591716,-3.8133852,1.0888,-0.077819824,0.0435791,0.0059814453,0.009399414
20:18:39.870;-0.15322891,-0.5363012,8.0445175,-1.8310547,1.2207031,0.061035156,10.58,-21.113997,6.9920006,244.09393,1000,1000,1000,1000,0.0,0.0,0.0,0.0,1013.1,26.2,1.2497956,9999999.0,1.2497956,9999999.0,-0.44471568,0.14660344,0.006824207,-3.8133852,1.0888,-0.10345459,0.060668945,0.0068359375,0.009399414
20:18:39.884;-0.19153613,-0.45968673,8.0445175,-1.7700195,0.91552734,0.12207031,10.58,-21.113997,6.9920006,244.09393,1000,1000,1000,1000,0.0,0.0,0.0,0.0,1013.1,26.2,1.2497956,9999999.0,1.2497956,9999999.0,-0.52549726,0.18346651,0.0077131134,-3.2695634,1.361707,-0.12823486,0.07348633,0.0076904297,0.009399414
20:18:39.901;-0.19153613,-0.45968673,8.0445175,-1.7700195,0.91552734,0.12207031,10.58,-21.113997,6.9920006,244.09393,1000,1000,1000,1000,0.0,0.0,0.0,0.0,1013.33997,26.2,-0.7504058,9999999.0,-0.7504058,9999999.0,-0.60986704,0.22228397,0.009780531,-3.2695634,1.361707,-0.1583252,0.08905029,0.009765625,0.009399414
20:18:39.914;-0.11492168,-0.5363012,8.082825,-1.7089844,0.91552734,0.061035156,10.488,-21.113997,6.9920006,243.94727,1000,1000,1000,1000,0.0,0.0,0.0,0.0,1013.33997,26.2,-0.7504058,185.02258,2.267705,1.8502258,-0.6953555,0.24575791,0.014261431,-3.7956693,0.81279016,-0.18054199,0.10095215,0.011352539,0.1560669
20:18:39.927;-0.11492168,-0.5363012,8.082825,-1.7089844,0.91552734,0.061035156,10.488,-21.113997,6.9920006,243.94727,1000,1000,1000,1000,0.0,0.0,0.0,0.0,1013.33997,26.2,-0.7504058,185.02258,2.267705,1.8502258,-0.77913415,0.26876238,0.017875126,-3.7956693,0.81279016,-0.20275879,0.112854004,0.012145996,0.1560669
20:18:39.950;-0.11492168,-0.61291564,8.0445175,-1.953125,0.8544922,0.061035156,10.488,-21.113997,6.9920006,243.94727,1000,1000,1000,1000,0.0,0.0,0.0,0.0,1013.33997,26.2,-0.7504058,185.02258,2.267705,1.8502258,-0.8947055,0.2989692,0.02201469,-4.356532,0.8160905,-0.24768066,0.13250732,0.013549805,0.1560669
20:18:39.958;-0.11492168,-0.61291564,8.0445175,-1.953125,0.8544922,0.061035156,10.488,-21.113997,6.9920006,243.94727,1000,1000,1000,1000,0.0,0.0,0.0,0.0,1013.16,26.2,0.7504058,185.02258,2.267705,1.8502258,-0.9792544,0.31601086,0.025174247,-4.356532,0.8160905,-0.26330566,0.13934326,0.014038086,0.1560669
20:18:39.972;-0.11492168,-0.49799395,8.0445175,-1.8310547,0.79345703,0.061035156,10.488,-21.113997,6.8999996,243.94727,1000,1000,1000,1000,0.0,0.0,0.0,0.0,1013.16,26.2,0.7504058,185.02258,2.267705,1.8502258,-1.0556314,0.3369147,0.0286295,-3.5420008,0.81689197,-0.28894043,0.15045166,0.014892578,0.1560669
20:18:39.985;-0.11492168,-0.49799395,8.0445175,-1.8310547,0.79345703,0.061035156,10.488,-21.113997,6.8999996,243.94727,1000,1000,1000,1000,0.0,0.0,0.0,0.0,1013.16,26.2,0.7504058,185.09169,2.2683961,1.8509169,-1.1286864,0.35662284,0.031955834,-3.5420008,0.81689197,-0.31274414,0.1607666,0.015686035,0.1560669
20:18:39.998;-0.11492168,-0.45968673,8.00621,-1.7700195,0.9765625,0.18310547,10.488,-21.113997,6.8999996,243.94727,1000,1000,1000,1000,0.0,0.0,0.0,0.0,1013.19995,26.2,0.41747928,185.09169,2.2683961,1.8509169,-1.194378,0.37835217,0.035215642,-3.2857642,0.821019,-0.3357544,0.17346191,0.016479492,0.1560669
20:18:40.015;-0.11492168,-0.45968673,8.00621,-1.7700195,0.9765625,0.18310547,10.488,-21.113997,6.8999996,243.94727,1000,1000,1000,1000,0.0,0.0,0.0,0.0,1013.19995,26.2,0.41747928,185.09169,2.2683961,1.8509169,-1.2656941,0.40347502,0.040683202,-3.2857642,0.821019,-0.36584473,0.19006348,0.019592285,0.1560669
20:18:40.029;-0.15322891,-0.49799395,8.00621,-1.7700195,1.159668,0.061035156,10.488,-21.113997,6.8999996,243.94727,1000,1000,1000,1000,0.0,0.0,0.0,0.0,1013.19995,26.2,0.41747928,185.09169,2.2683961,1.8509169,-1.3341025,0.4320661,0.045323636,-3.5586169,1.0943217,-0.38885498,0.20513916,0.021972656,0.1560669
20:18:40.044;-0.15322891,-0.49799395,8.00621,-1.7700195,1.159668,0.061035156,10.488,-21.113997,6.8999996,243.94727,1000,1000,1000,1000,0.0,0.0,0.0,0.0,1013.19995,26.2,0.41747928,185.09169,2.2683961,1.8509169,-1.4063467,0.4634948,0.04849553,-3.5586169,1.0943217,-0.4171753,0.22369385,0.022949219,0.1560669
20:18:40.059;-0.15322891,-0.5363012,8.082825,-1.8920898,0.9765625,0.12207031,10.58,-21.113997,6.8999996,244.09393,1000,1000,1000,1000,0.0,0.0,0.0,0.0,1013.19995,26.2,0.41747928,185.02258,2.267705,1.8502258,-1.4819409,0.49025366,0.04861083,-3.795372,1.0836637,-0.44555664,0.23834229,0.023864746,0.009399414
20:18:40.074;-0.15322891,-0.5363012,8.082825,-1.8920898,0.9765625,0.12207031,10.58,-21.113997,6.8999996,244.09393,1000,1000,1000,1000,0.0,0.0,0.0,0.0,1013.13995,26.2,0.91686904,185.02258,2.267705,1.8502258,-1.5541689,0.51552033,0.049501408,-3.795372,1.0836637,-0.4720459,0.25201416,0.02557373,0.009399414
20:18:40.088;-0.15322891,-0.5363012,8.082825,-1.8920898,0.9765625,0.12207031,10.58,-21.113997,6.8999996,244.09393,1000,1000,1000,1000,0.0,0.0,0.0,0.0,1013.13995,26.2,0.91686904,185.02258,2.267705,1.8502258,-1.6268066,0.54123867,0.050493803,-3.795372,1.0836637,-0.50042725,0.2666626,0.027404785,0.009399414
20:18:40.160;-0.19153613,-0.45968673,7.929596,-1.7089844,1.0375977,0.0,10.58,-21.113997,6.8999996,244.09393,1000,1000,1000,1000,0.0,0.0,0.0,0.0,1013.13995,26.2,0.91686904,185.02258,2.267705,1.8502258,-1.7811928,0.63125414,0.0582852,-3.3168159,1.3813686,-0.6234741,0.34136963,0.036193848,0.009399414
20:18:40.172;-0.11492168,-0.45968673,8.082825,-1.7700195,0.91552734,0.18310547,10.58,-21.206,6.9920006,244.10333,1000,1000,1000,1000,0.0,0.0,0.0,0.0,1013.13995,26.2,0.91686904,185.09169,2.2683961,1.8509169,-1.8314781,0.64566094,0.057119496,-3.2546933,0.8132631,-0.64471436,0.35235596,0.036193848,0.0
20:18:40.188;-0.11492168,-0.45968673,8.082825,-1.7700195,0.91552734,0.18310547,10.58,-21.206,6.9920006,244.10333,1000,1000,1000,1000,0.0,0.0,0.0,0.0,1013.13995,26.2,0.91686904,185.09169,2.2683961,1.8509169,-1.8859617,0.66247123,0.05866876,-3.2546933,0.8132631,-0.67126465,0.36608887,0.03894043,0.0
20:18:40.202;-0.076614454,-0.49799395,8.00621,-1.7700195,0.8544922,0.24414063,10.58,-21.206,6.9920006,244.10333,1000,1000,1000,1000,0.0,0.0,0.0,0.0,1013.13995,26.2,0.91686904,185.09169,2.2683961,1.8509169,-1.9437091,0.67188966,0.06000759,-3.5591042,0.54721075,-0.6960449,0.37805176,0.041503906,0.0
20:18:40.214;-0.076614454,-0.49799395,8.00621,-1.7700195,0.8544922,0.24414063,10.58,-21.206,6.9920006,244.10333,1000,1000,1000,1000,0.0,0.0,0.0,0.0,1013.13995,26.2,0.91686904,185.09169,2.2683961,1.8509169,-1.9985671,0.6802823,0.06191779,-3.5591042,0.54721075,-0.7190552,0.38916016,0.044677734,0.0
20:18:40.229;-0.15322891,-0.5363012,8.0445175,-1.5869141,0.91552734,0.061035156,10.58,-21.206,6.9920006,244.10333,1000,1000,1000,1000,0.0,0.0,0.0,0.0,1013.13995,26.2,0.91686904,185.09169,2.2683961,1.8509169,-2.058191,0.70191085,0.0642683,-3.8133852,1.0888,-0.7428589,0.40289307,0.048339844,0.0
20:18:40.244;-0.15322891,-0.5363012,8.0445175,-1.5869141,0.91552734,0.061035156,10.58,-21.206,6.9920006,244.10333,1000,1000,1000,1000,0.0,0.0,0.0,0.0,1013.13995,26.2,0.91686904,185.09169,2.2683961,1.8509169,-2.1166227,0.72310686,0.06388015,-3.8133852,1.0888,-0.7666626,0.41662598,0.04925537,0.0
20:18:40.257;-0.15322891,-0.6512229,8.082825,-1.7700195,0.8544922,0.18310547,10.58,-21.206,6.8999996,244.10333,1000,1000,1000,1000,0.0,0.0,0.0,0.0,1013.07996,26.2,1.4162588,185.02258,2.267705,1.8502258,-2.1889498,0.7411817,0.06338014,-4.605474,1.0825388,-0.78967285,0.42773438,0.050048828,0.0
20:18:40.271;-0.15322891,-0.6512229,8.082825,-1.7700195,0.8544922,0.18310547,10.58,-21.206,6.8999996,244.10333,1000,1000,1000,1000,0.0,0.0,0.0,0.0,1013.07996,26.2,1.4162588,185.02258,2.267705,1.8502258,-2.261565,0.7597324,0.06462474,-4.605474,1.0825388,-0.8144531,0.43969727,0.052612305,0.0
20:18:40.286;-0.11492168,-0.4213795,8.00621,-1.5869141,0.91552734,0.061035156,10.58,-21.206,6.8999996,244.10333,1000,1000,1000,1000,0.0,0.0,0.0,0.0,1013.07996,26.2,1.4162588,185.02258,2.267705,1.8502258,-2.299911,0.7744207,0.0660239,-3.0124779,0.8212345,-0.83825684,0.45343018,0.055358887,0.0
20:18:40.300;-0.11492168,-0.4213795,8.00621,-1.5869141,0.91552734,0.061035156,10.58,-21.206,6.8999996,244.10333,1000,1000,1000,1000,0.0,0.0,0.0,0.0,1013.22,26.2,0.25101602,185.02258,2.267705,1.8502258,-2.3359349,0.787918,0.06554083,-3.0124779,0.8212345,-0.86047363,0.46624756,0.05621338,0.0
20:18:40.316;-0.076614454,-0.4213795,8.0445175,-1.8920898,0.9765625,0.061035156,10.58,-21.206,6.9920006,244.10333,1000,1000,1000,1000,0.0,0.0,0.0,0.0,1013.22,26.2,0.25101602,185.02258,2.267705,1.8502258,-2.3788507,0.7983703,0.065187044,-2.9983315,0.5449106,-0.8907471,0.48187256,0.05718994,0.0
20:18:40.332;-0.076614454,-0.4213795,8.0445175,-1.8920898,0.9765625,0.061035156,10.58,-21.206,6.9920006,244.10333,1000,1000,1000,1000,0.0,0.0,0.0,0.0,1013.22,26.2,0.25101602,185.02258,2.267705,1.8502258,-2.419054,0.8076565,0.06478052,-2.9983315,0.5449106,-0.9191284,0.496521,0.05810547,0.0
20:18:40.345;-0.22984336,-0.61291564,7.967903,-1.8310547,0.91552734,0.24414063,10.58,-21.206,6.9920006,244.10333,1000,1000,1000,1000,0.0,0.0,0.0,0.0,1013.25995,26.2,-0.084552765,185.02258,2.267705,1.8502258,-2.4837327,0.83701324,0.064322315,-4.3968835,1.6474406,-0.9447632,0.5093384,0.05895996,0.0
20:18:40.360;-0.22984336,-0.61291564,7.967903,-1.8310547,0.91552734,0.24414063,10.58,-21.206,6.9920006,244.10333,1000,1000,1000,1000,0.0,0.0,0.0,0.0,1013.25995,26.2,-0.084552765,185.09169,2.2683961,1.8509169,-2.5489123,0.86668,0.06662474,-4.3968835,1.6474406,-0.972229,0.5230713,0.06262207,0.0
20:18:40.374;-0.22984336,-0.5363012,8.00621,-1.4648438,1.0375977,-0.061035156,10.58,-21.113997,6.9920006,244.09393,1000,1000,1000,1000,0.0,0.0,0.0,0.0,1013.13995,26.2,0.91686904,185.09169,2.2683961,1.8509169,-2.5946457,0.8963968,0.06882984,-3.8306963,1.6407284,-0.9927368,0.53759766,0.06604004,0.009399414
20:18:40.387;-0.22984336,-0.5363012,8.00621,-1.4648438,1.0375977,-0.061035156,10.58,-21.113997,6.9920006,244.09393,1000,1000,1000,1000,0.0,0.0,0.0,0.0,1013.13995,26.2,0.91686904,185.09169,2.2683961,1.8509169,-2.6380289,0.92450243,0.06686364,-3.8306963,1.6407284,-1.0117798,0.5510864,0.06524658,0.009399414
20:18:40.403;-0.038307227,-0.38307226,8.00621,-1.8310547,0.7324219,0.18310547,10.58,-21.113997,6.9920006,244.09393,1000,1000,1000,1000,0.0,0.0,0.0,0.0,1013.13995,26.2,0.91686904,185.09169,2.2683961,1.8509169,-2.6669707,0.9222555,0.06481714,-2.7393043,0.27382714,-1.0392456,0.56207275,0.064331055,0.009399414
20:18:40.422;-0.038307227,-0.38307226,8.00621,-1.8310547,0.7324219,0.18310547,10.58,-21.113997,6.9920006,244.09393,1000,1000,1000,1000,0.0,0.0,0.0,0.0,1013.19995,26.2,0.41747928,185.09169,2.2683961,1.8509169,-2.704306,0.9236424,0.06729765,-2.7393043,0.27382714,-1.0758667,0.5767212,0.067993164,0.009399414
20:18:40.430;-0.11492168,-0.5363012,8.0445175,-1.7089844,0.8544922,0.0,10.672,-21.113997,6.8999996,244.24065,1000,1000,1000,1000,0.0,0.0,0.0,0.0,1013.19995,26.2,0.41747928,185.09169,2.2683961,1.8509169,-2.739892,0.9282017,0.06464097,-3.813687,0.816643,-1.0895386,0.5835571,0.06945801,-0.13731384
20:18:40.443;-0.11492168,-0.5363012,8.0445175,-1.7089844,0.8544922,0.0,10.672,-21.113997,6.8999996,244.24065,1000,1000,1000,1000,0.0,0.0,0.0,0.0,1013.19995,26.2,0.41747928,187.51074,2.2925868,1.8751074,-2.7831404,0.93685675,0.06060188,-3.813687,0.816643,-1.1117554,0.5946655,0.06945801,-0.13731384
20:18:40.458;-0.19153613,-0.5746084,8.00621,-1.7700195,0.91552734,0.18310547,10.672,-21.113997,6.8999996,244.24065,1000,1000,1000,1000,0.0,0.0,0.0,0.0,1013.19995,26.2,0.41747928,187.51074,2.2925868,1.8751074,-2.8338408,0.9580194,0.056643568,-4.103928,1.3669363,-1.1365356,0.6074829,0.06945801,-0.13731384
20:18:40.474;-0.19153613,-0.5746084,8.00621,-1.7700195,0.91552734,0.18310547,10.672,-21.113997,6.8999996,244.24065,1000,1000,1000,1000,0.0,0.0,0.0,0.0,1013.19995,26.2,0.41747928,187.51074,2.2925868,1.8751074,-2.8869965,0.98055315,0.05563552,-4.103928,1.3669363,-1.164856,0.62213135,0.072387695,-0.13731384
20:18:40.486;-0.15322891,-0.49799395,8.00621,-1.7700195,0.7324219,0.0,10.672,-21.113997,6.8999996,244.24065,1000,1000,1000,1000,0.0,0.0,0.0,0.0,1013.19995,26.2,0.41747928,187.51074,2.2925868,1.8751074,-2.9229789,0.99215955,0.0541093,-3.5586169,1.0943217,-1.1878662,0.63165283,0.07476807,-0.13731384
20:18:40.500;-0.15322891,-0.49799395,8.00621,-1.7700195,0.7324219,0.0,10.672,-21.113997,6.8999996,244.24065,1000,1000,1000,1000,0.0,0.0,0.0,0.0,1013.19995,26.2,0.41747928,187.51074,2.2925868,1.8751074,-2.9599762,1.0042517,0.050280843,-3.5586169,1.0943217,-1.2126465,0.64190674,0.07476807,-0.13731384
20:18:40.519;-0.076614454,-0.38307226,8.0445175,-1.8920898,0.6713867,0.18310547,10.58,-21.113997,6.8999996,244.09393,1000,1000,1000,1000,0.0,0.0,0.0,0.0,1013.13995,26.2,0.91686904,187.51074,2.2925868,1.8751074,-2.9886768,1.0069107,0.049463216,-2.7261875,0.54504,-1.2467041,0.6539917,0.07476807,0.009399414
20:18:40.530;-0.076614454,-0.38307226,8.0445175,-1.8920898,0.6713867,0.18310547,10.58,-21.113997,6.8999996,244.09393,1000,1000,1000,1000,0.0,0.0,0.0,0.0,1013.13995,26.2,0.91686904,9999999.0,0.91686904,9999999.0,-3.005678,1.0055687,0.050815262,-2.7261875,0.54504,-1.2694092,0.66204834,0.07696533,0.009399414
20:18:40.544;-0.15322891,-0.5363012,8.0445175,-1.953125,0.61035156,-0.061035156,10.58,-21.113997,6.8999996,244.09393,1000,1000,1000,1000,0.0,0.0,0.0,0.0,1013.07996,26.2,1.4162588,9999999.0,1.4162588,9999999.0,-3.046715,1.0150093,0.05231971,-3.8133852,1.0888,-1.2947998,0.6699829,0.0793457,0.009399414
20:18:40.557;-0.15322891,-0.5363012,8.0445175,-1.953125,0.61035156,-0.061035156,10.58,-21.113997,6.8999996,244.09393,1000,1000,1000,1000,0.0,0.0,0.0,0.0,1013.07996,26.2,1.4162588,9999999.0,1.4162588,9999999.0,-3.0888455,1.0248591,0.0506239,-3.8133852,1.0888,-1.3221436,0.67852783,0.07849121,0.009399414
20:18:40.574;-0.11492168,-0.6512229,7.967903,-1.8920898,0.91552734,-0.061035156,10.58,-21.206,6.8999996,244.10333,1000,1000,1000,1000,0.0,0.0,0.0,0.0,1013.07996,26.2,1.4162588,9999999.0,1.4162588,9999999.0,-3.15203,1.0360861,0.04859458,-4.6719594,0.8235784,-1.3543091,0.6940918,0.07745361,0.0
20:18:40.591;-0.11492168,-0.6512229,7.967903,-1.8920898,0.91552734,-0.061035156,10.58,-21.206,6.8999996,244.10333,1000,1000,1000,1000,0.0,0.0,0.0,0.0,1013.19995,26.2,0.41747928,9999999.0,0.41747928,9999999.0,-3.2139509,1.0470886,0.046605844,-4.6719594,0.8235784,-1.3864746,0.70965576,0.076416016,0.0
20:18:40.607;-0.15322891,-0.45968673,8.00621,-1.8310547,1.0375977,0.18310547,10.58,-21.206,6.8999996,244.10333,1000,1000,1000,1000,0.0,0.0,0.0,0.0,1013.19995,26.2,0.41747928,9999999.0,0.41747928,9999999.0,-3.2422986,1.0632923,0.04477651,-3.2855017,1.0946337,-1.4139404,0.7252197,0.07550049,0.0
20:18:40.616;-0.15322891,-0.45968673,8.00621,-1.8310547,1.0375977,0.18310547,10.58,-21.206,6.8999996,244.10333,1000,1000,1000,1000,0.0,0.0,0.0,0.0,1013.19995,26.2,0.41747928,9999999.0,0.41747928,9999999.0,-3.2593126,1.0730708,0.045495972,-3.2855017,1.0946337,-1.4304199,0.7345581,0.07714844,0.0
20:18:40.635;-0.076614454,-0.4213795,7.929596,-1.953125,1.0986328,0.061035156,10.58,-21.206,6.8999996,244.10333,1000,1000,1000,1000,0.0,0.0,0.0,0.0,1013.13995,26.2,0.91686904,9999999.0,0.91686904,9999999.0,-3.2913275,1.0831217,0.047995478,-3.0417006,0.5527853,-1.4675293,0.7554321,0.08062744,0.0
20:18:40.647;-0.076614454,-0.4213795,7.929596,-1.953125,1.0986328,0.061035156,10.58,-21.206,6.8999996,244.10333,1000,1000,1000,1000,0.0,0.0,0.0,0.0,1013.13995,26.2,0.91686904,9999999.0,0.91686904,9999999.0,-3.3093038,1.0854349,0.04775334,-3.0417006,0.5527853,-1.4909668,0.7686157,0.08135986,0.0
20:18:40.660;-0.076614454,-0.5363012,8.00621,-1.7089844,1.0986328,0.18310547,10.672,-21.113997,6.8999996,244.24065,1000,1000,1000,1000,0.0,0.0,0.0,0.0,1013.13995,26.2,0.91686904,9999999.0,0.91686904,9999999.0,-3.343207,1.0897403,0.044889405,-3.832095,0.54704237,-1.5148926,0.7839966,0.082214355,-0.13731384
20:18:40.679;-0.076614454,-0.5363012,8.00621,-1.7089844,1.0986328,0.18310547,10.672,-21.113997,6.8999996,244.24065,1000,1000,1000,1000,0.0,0.0,0.0,0.0,1013.16,26.2,0.7504058,9999999.0,0.7504058,9999999.0,-3.384806,1.0993428,0.044654768,-3.832095,0.54704237,-1.5473633,0.8048706,0.08569336,-0.13731384
20:18:40.689;-0.11492168,-0.5363012,8.00621,-1.7700195,0.8544922,0.30517578,10.672,-21.113997,6.8999996,244.24065,1000,1000,1000,1000,0.0,0.0,0.0,0.0,1013.16,26.2,0.7504058,9999999.0,0.7504058,9999999.0,-3.409359,1.1013032,0.04263039,-3.8318763,0.82053244,-1.5632935,0.81256104,0.08734131,-0.13731384
20:18:40.703;-0.11492168,-0.5363012,8.00621,-1.7700195,0.8544922,0.30517578,10.672,-21.113997,6.8999996,244.24065,1000,1000,1000,1000,0.0,0.0,0.0,0.0,1013.16,26.2,0.7504058,9999999.0,0.7504058,9999999.0,-3.442094,1.1074114,0.04321852,-3.8318763,0.82053244,-1.5880737,0.8245239,0.09161377,-0.13731384
20:18:40.716;-0.15322891,-0.45968673,8.0445175,-1.8920898,1.0986328,0.061035156,10.672,-21.113997,6.9920006,244.24065,1000,1000,1000,1000,0.0,0.0,0.0,0.0,1013.13995,26.2,0.91686904,9999999.0,0.91686904,9999999.0,-3.4646096,1.1221251,0.04379489,-3.2698963,1.0894395,-1.614563,0.8399048,0.09588623,-0.13731384
20:18:40.731;-0.15322891,-0.45968673,8.0445175,-1.8920898,1.0986328,0.061035156,10.672,-21.113997,6.9920006,244.24065,1000,1000,1000,1000,0.0,0.0,0.0,0.0,1013.13995,26.2,0.91686904,9999999.0,0.91686904,9999999.0,-3.486675,1.1365446,0.041010123,-3.2698963,1.0894395,-1.6410522,0.85528564,0.09674072,-0.13731384
20:18:40.744;-0.15322891,-0.4213795,8.0445175,-1.8310547,0.91552734,0.0,10.672,-21.113997,6.9920006,244.24065,1000,1000,1000,1000,0.0,0.0,0.0,0.0,1013.13995,26.2,0.91686904,9999999.0,0.91686904,9999999.0,-3.502022,1.1481692,0.03828105,-2.9979246,1.0897226,-1.666687,0.868103,0.097595215,-0.13731384
20:18:40.759;-0.15322891,-0.4213795,8.0445175,-1.8310547,0.91552734,0.0,10.672,-21.113997,6.9920006,244.24065,1000,1000,1000,1000,0.0,0.0,0.0,0.0,1013.27997,26.2,-0.24837375,9999999.0,-0.24837375,9999999.0,-3.5188565,1.1604584,0.034769155,-2.9979246,1.0897226,-1.6941528,0.88183594,0.097595215,-0.13731384
20:18:40.777;-0.11492168,-0.5746084,8.00621,-1.7089844,0.8544922,0.0,10.672,-21.113997,6.8999996,244.24065,1000,1000,1000,1000,0.0,0.0,0.0,0.0,1013.27997,26.2,-0.24837375,9999999.0,-0.24837375,9999999.0,-3.5590446,1.1678903,0.0313275,-4.104677,0.8202614,-1.7232056,0.8963623,0.097595215,-0.13731384
20:18:40.787;-0.11492168,-0.5746084,8.00621,-1.7089844,0.8544922,0.0,10.672,-21.113997,6.8999996,244.24065,1000,1000,1000,1000,0.0,0.0,0.0,0.0,1013.27997,26.2,-0.24837375,9999999.0,-0.24837375,9999999.0,-3.58838,1.1701492,0.027954677,-4.104677,0.8202614,-1.7420044,0.9057617,0.097595215,-0.13731384
20:18:40.803;-0.11492168,-0.5363012,8.0445175,-1.8920898,1.0986328,0.4272461,10.672,-21.113997,6.8999996,244.24065,1000,1000,1000,1000,0.0,0.0,0.0,0.0,1013.19995,26.2,0.41747928,9999999.0,0.41747928,9999999.0,-3.6225543,1.1803057,0.024649309,-3.813687,0.816643,-1.7722778,0.92333984,0.097595215,-0.13731384
20:18:40.815;-0.11492168,-0.5363012,8.0445175,-1.8920898,1.0986328,0.4272461,10.672,-21.113997,6.8999996,244.24065,1000,1000,1000,1000,0.0,0.0,0.0,0.0,1013.19995,26.2,0.41747928,9999999.0,0.41747928,9999999.0,-3.648628,1.1859524,0.026434463,-3.813687,0.816643,-1.7949829,0.93652344,0.10272217,-0.13731384
20:18:40.832;-0.11492168,-0.5363012,8.0445175,-1.8920898,1.0986328,0.4272461,10.672,-21.113997,6.8999996,244.24065,1000,1000,1000,1000,0.0,0.0,0.0,0.0,1013.19995,26.2,0.41747928,9999999.0,0.41747928,9999999.0,-3.6834514,1.1968695,0.030277418,-3.813687,0.816643,-1.8271484,0.9552002,0.10998535,-0.13731384
20:18:40.849;-0.15322891,-0.45968673,7.967903,-1.8920898,0.79345703,0.18310547,10.672,-21.021997,6.8999996,244.23157,1000,1000,1000,1000,0.0,0.0,0.0,0.0,1013.13995,26.2,0.91686904,9999999.0,0.91686904,9999999.0,-3.7054753,1.2073711,0.033806395,-3.3012567,1.0998777,-1.8574219,0.9678955,0.11682129,-0.12823486
20:18:40.864;-0.15322891,-0.49799395,8.0445175,-1.7700195,0.9765625,0.30517578,10.672,-21.021997,6.8999996,244.23157,1000,1000,1000,1000,0.0,0.0,0.0,0.0,1013.13995,26.2,0.91686904,9999999.0,0.91686904,9999999.0,-3.7299542,1.2203188,0.033436667,-3.5417204,1.0891318,-1.8857422,0.9835205,0.11975098,-0.12823486
20:18:40.878;-0.15322891,-0.49799395,8.0445175,-1.7700195,0.9765625,0.30517578,10.672,-21.021997,6.8999996,244.23157,1000,1000,1000,1000,0.0,0.0,0.0,0.0,1013.13995,26.2,0.91686904,9999999.0,0.91686904,9999999.0,-3.7504742,1.2310935,0.034390252,-3.5417204,1.0891318,-1.9105225,0.9971924,0.12402344,-0.12823486
20:18:40.892;-0.11492168,-0.45968673,8.00621,-1.953125,0.9765625,0.12207031,10.672,-21.021997,6.8999996,244.23157,1000,1000,1000,1000,0.0,0.0,0.0,0.0,1013.13995,26.2,0.91686904,9999999.0,0.91686904,9999999.0,-3.767977,1.2362905,0.035324764,-3.2857642,0.821019,-1.9378662,1.0108643,0.1282959,-0.12823486
20:18:40.905;-0.11492168,-0.45968673,8.00621,-1.953125,0.9765625,0.12207031,10.672,-21.021997,6.8999996,244.23157,1000,1000,1000,1000,0.0,0.0,0.0,0.0,1013.13995,26.2,0.91686904,9999999.0,0.91686904,9999999.0,-3.7832158,1.2404264,0.03360875,-3.2857642,0.821019,-1.9632568,1.0235596,0.12988281,-0.12823486
20:18:40.918;-0.15322891,-0.45968673,8.0445175,-1.8920898,0.9765625,0.12207031,10.672,-21.206,6.8999996,244.24966,1000,1000,1000,1000,0.0,0.0,0.0,0.0,1013.13995,26.2,0.91686904,9999999.0,0.91686904,9999999.0,-3.7970548,1.249848,0.03156512,-3.2698963,1.0894395,-1.987854,1.0362549,0.13146973,-0.14633179
20:18:40.933;-0.15322891,-0.45968673,8.0445175,-1.8920898,0.9765625,0.12207031,10.672,-21.206,6.8999996,244.24966,1000,1000,1000,1000,0.0,0.0,0.0,0.0,1013.22,26.2,0.25101602,9999999.0,0.25101602,9999999.0,-3.8143253,1.2609953,0.029801618,-3.2698963,1.0894395,-2.0162354,1.0509033,0.13330078,-0.14633179
20:18:40.947;-0.19153613,-0.49799395,8.0445175,-1.8310547,0.8544922,0.12207031,10.672,-21.206,6.8999996,244.24966,1000,1000,1000,1000,0.0,0.0,0.0,0.0,1013.22,26.2,0.25101602,9999999.0,0.25101602,9999999.0,-3.8339882,1.2747254,0.027953759,-3.5413601,1.3613225,-2.04187,1.0628662,0.13500977,-0.14633179
20:18:40.963;-0.19153613,-0.49799395,8.0445175,-1.8310547,0.8544922,0.12207031,10.672,-21.206,6.8999996,244.24966,1000,1000,1000,1000,0.0,0.0,0.0,0.0,1013.22,26.2,0.25101602,9999999.0,0.25101602,9999999.0,-3.8568466,1.2898558,0.026382115,-3.5413601,1.3613225,-2.071167,1.0765381,0.13696289,-0.14633179
20:18:40.976;-0.11492168,-0.5363012,8.0445175,-1.8310547,0.91552734,0.0,10.488,-20.929998,6.808,243.92758,1000,1000,1000,1000,0.0,0.0,0.0,0.0,1013.13995,26.2,0.91686904,9999999.0,0.91686904,9999999.0,-3.879311,1.2920555,0.03092466,-3.813687,0.816643,-2.0949707,1.08844,0.1385498,0.17575073
20:18:40.991;-0.11492168,-0.5363012,8.0445175,-1.8310547,0.91552734,0.0,10.488,-20.929998,6.808,243.92758,1000,1000,1000,1000,0.0,0.0,0.0,0.0,1013.13995,26.2,0.91686904,9999999.0,0.91686904,9999999.0,-3.904915,1.2960055,0.033821177,-3.813687,0.816643,-2.1224365,1.1021729,0.1385498,0.17575073
20:18:41.007;-0.11492168,-0.5363012,8.0445175,-1.8310547,0.91552734,0.0,10.488,-20.929998,6.808,243.92758,1000,1000,1000,1000,0.0,0.0,0.0,0.0,1013.13995,26.2,0.91686904,9999999.0,0.91686904,9999999.0,-3.930007,1.2998766,0.036659766,-3.813687,0.816643,-2.1499023,1.1159058,0.1385498,0.17575073
20:18:41.022;-0.076614454,-0.49799395,8.082825,-1.7089844,0.8544922,0.30517578,10.488,-20.929998,6.808,243.92758,1000,1000,1000,1000,0.0,0.0,0.0,0.0,1013.13995,26.2,0.91686904,9999999.0,0.91686904,9999999.0,-3.9470382,1.297281,0.039441586,-3.5254574,0.542044,-2.175537,1.1287231,0.1385498,0.17575073
20:18:41.035;-0.076614454,-0.49799395,8.082825,-1.7089844,0.8544922,0.30517578,10.488,-20.929998,6.808,243.92758,1000,1000,1000,1000,0.0,0.0,0.0,0.0,1013.16,26.2,0.7504058,9999999.0,0.7504058,9999999.0,-3.962054,1.2939,0.046354778,-3.5254574,0.542044,-2.199463,1.140686,0.14282227,0.17575073
20:18:41.048;-0.076614454,-0.45968673,7.967903,-1.6479492,0.79345703,0.061035156,10.58,-21.021997,6.8999996,244.08447,1000,1000,1000,1000,0.0,0.0,0.0,0.0,1013.16,26.2,0.7504058,9999999.0,0.7504058,9999999.0,-3.9698422,1.2891304,0.04969282,-3.3017135,0.5499895,-2.2208862,1.151001,0.14678955,0.018859863
20:18:41.063;-0.076614454,-0.45968673,7.967903,-1.6479492,0.79345703,0.061035156,10.58,-21.021997,6.8999996,244.08447,1000,1000,1000,1000,0.0,0.0,0.0,0.0,1013.16,26.2,0.7504058,9999999.0,0.7504058,9999999.0,-3.9790895,1.2852339,0.049913563,-3.3017135,0.5499895,-2.2439575,1.1621094,0.14764404,0.018859863
20:18:41.075;-0.19153613,-0.5746084,8.00621,-1.7089844,0.8544922,0.24414063,10.58,-21.021997,6.8999996,244.08447,1000,1000,1000,1000,0.0,0.0,0.0,0.0,1013.16,26.2,0.7504058,9999999.0,0.7504058,9999999.0,-4.003359,1.2977542,0.050070077,-4.103928,1.3669363,-2.2661743,1.1732178,0.1484375,0.018859863
20:18:41.090;-0.19153613,-0.5746084,8.00621,-1.7089844,0.8544922,0.24414063,10.58,-21.021997,6.8999996,244.08447,1000,1000,1000,1000,0.0,0.0,0.0,0.0,1013.16,26.2,0.7504058,9999999.0,0.7504058,9999999.0,-4.0288177,1.3108615,0.052795485,-4.103928,1.3669363,-2.2901,1.1851807,0.15185547,0.018859863
20:18:41.104;-0.15322891,-0.49799395,7.967903,-1.7089844,0.9765625,0.0,10.488,-21.113997,6.8999996,243.94727,1000,1000,1000,1000,0.0,0.0,0.0,0.0,1013.16,26.2,0.7504058,9999999.0,0.7504058,9999999.0,-4.044877,1.320991,0.05844978,-3.575675,1.0995612,-2.3157349,1.1998291,0.15551758,0.1560669
20:18:41.118;-0.15322891,-0.49799395,7.967903,-1.7089844,0.9765625,0.0,10.488,-21.113997,6.8999996,243.94727,1000,1000,1000,1000,0.0,0.0,0.0,0.0,1013.22,26.2,0.25101602,9999999.0,0.25101602,9999999.0,-4.0589404,1.329961,0.060402118,-3.575675,1.0995612,-2.3396606,1.213501,0.15551758,0.1560669
20:18:41.132;-0.11492168,-0.49799395,8.0445175,-1.7700195,0.79345703,0.18310547,10.488,-21.113997,6.8999996,243.94727,1000,1000,1000,1000,0.0,0.0,0.0,0.0,1013.22,26.2,0.25101602,9999999.0,0.25101602,9999999.0,-4.0728865,1.3305858,0.062315412,-3.5420008,0.81689197,-2.364441,1.2246094,0.15551758,0.1560669
20:18:41.146;-0.11492168,-0.49799395,8.0445175,-1.7700195,0.79345703,0.18310547,10.488,-21.113997,6.8999996,243.94727,1000,1000,1000,1000,0.0,0.0,0.0,0.0,1013.22,26.2,0.25101602,9999999.0,0.25101602,9999999.0,-4.0865536,1.3311982,0.06670264,-3.5420008,0.81689197,-2.3892212,1.2357178,0.15808105,0.1560669
20:18:41.162;-0.11492168,-0.49799395,8.121132,-1.7700195,0.79345703,0.4272461,10.488,-21.113997,6.8999996,243.94727,1000,1000,1000,1000,0.0,0.0,0.0,0.0,1013.07996,26.2,1.4162588,9999999.0,1.4162588,9999999.0,-4.10275,1.3332,0.07136101,-3.5086763,0.8092154,-2.4175415,1.2484131,0.16101074,0.1560669
20:18:41.174;-0.11492168,-0.49799395,8.121132,-1.7700195,0.79345703,0.4272461,10.488,-21.113997,6.8999996,243.94727,1000,1000,1000,1000,0.0,0.0,0.0,0.0,1013.07996,26.2,1.4162588,9999999.0,1.4162588,9999999.0,-4.1116834,1.3320514,0.07807954,-3.5086763,0.8092154,-2.4387817,1.2579346,0.1661377,0.1560669
20:18:41.188;-0.15322891,-0.45968673,8.00621,-1.7700195,0.91552734,-0.061035156,10.488,-21.113997,6.8999996,243.94727,1000,1000,1000,1000,0.0,0.0,0.0,0.0,1013.07996,26.2,1.4162588,9999999.0,1.4162588,9999999.0,-4.1194444,1.3398641,0.0855011,-3.2855017,1.0946337,-2.463562,1.270752,0.17211914,0.1560669
20:18:41.202;-0.15322891,-0.45968673,8.00621,-1.7700195,0.91552734,-0.061035156,10.488,-21.113997,6.8999996,243.94727,1000,1000,1000,1000,0.0,0.0,0.0,0.0,1013.19995,26.2,0.41747928,9999999.0,0.41747928,9999999.0,-4.1270504,1.3475206,0.08607501,-3.2855017,1.0946337,-2.4883423,1.2835693,0.17126465,0.1560669
20:18:41.216;-0.11492168,-0.49799395,8.00621,-1.8920898,0.91552734,0.24414063,10.488,-21.113997,6.8999996,243.94727,1000,1000,1000,1000,0.0,0.0,0.0,0.0,1013.19995,26.2,0.41747928,9999999.0,0.41747928,9999999.0,-4.141647,1.3495469,0.08663744,-3.558901,0.8207849,-2.5148315,1.2963867,0.17041016,0.1560669
20:18:41.230;-0.11492168,-0.49799395,8.00621,-1.8920898,0.91552734,0.24414063,10.488,-21.113997,6.8999996,243.94727,1000,1000,1000,1000,0.0,0.0,0.0,0.0,1013.19995,26.2,0.41747928,9999999.0,0.41747928,9999999.0,-4.1559515,1.3515327,0.091375634,-3.558901,0.8207849,-2.5413208,1.3092041,0.17382813,0.1560669
20:18:41.244;-0.038307227,-0.49799395,7.967903,-1.8310547,0.7324219,0.061035156,10.58,-21.113997,6.9920006,244.09393,1000,1000,1000,1000,0.0,0.0,0.0,0.0,1013.13995,26.2,0.91686904,437.7094,4.794574,4.3770943,-4.1694803,1.3400493,0.09308572,-3.5762932,0.27492192,-2.5669556,1.319458,0.1772461,0.009399414
20:18:41.258;-0.038307227,-0.49799395,7.967903,-1.8310547,0.7324219,0.061035156,10.58,-21.113997,6.9920006,244.09393,1000,1000,1000,1000,0.0,0.0,0.0,0.0,1013.13995,26.2,0.91686904,437.7094,4.794574,4.3770943,-4.1827383,1.3287956,0.09224939,-3.5762932,0.27492192,-2.5925903,1.3297119,0.17810059,0.009399414
20:18:41.274;-0.076614454,-0.61291564,8.082825,-1.5869141,0.9765625,0.4272461,10.58,-21.113997,6.9920006,244.09393,1000,1000,1000,1000,0.0,0.0,0.0,0.0,1013.13995,26.2,0.91686904,437.7094,4.794574,4.3770943,-4.2106905,1.3283625,0.09154943,-4.3362107,0.54151714,-2.617981,1.3453369,0.17907715,0.009399414
20:18:41.287;-0.076614454,-0.61291564,8.082825,-1.5869141,0.9765625,0.4272461,10.58,-21.113997,6.9920006,244.09393,1000,1000,1000,1000,0.0,0.0,0.0,0.0,1013.16,26.2,0.7504058,289.11075,3.3085868,2.8911076,-4.2334185,1.3250669,0.09534954,-4.3362107,0.54151714,-2.6386108,1.3580322,0.18463135,0.009399414
20:18:41.303;-0.19153613,-0.49799395,8.082825,-1.7700195,1.0375977,0.18310547,10.488,-21.482,6.808,243.98608,1000,1000,1000,1000,0.0,0.0,0.0,0.0,1013.16,26.2,0.7504058,289.11075,3.3085868,2.8911076,-4.2469964,1.3419331,0.10248674,-3.5246284,1.3548976,-2.6669312,1.3746338,0.19146729,0.117248535
20:18:41.317;-0.19153613,-0.49799395,8.082825,-1.7700195,1.0375977,0.18310547,10.488,-21.482,6.808,243.98608,1000,1000,1000,1000,0.0,0.0,0.0,0.0,1013.13995,26.2,0.91686904,289.11075,3.3085868,2.8911076,-4.2568336,1.3564283,0.105294175,-3.5246284,1.3548976,-2.6917114,1.3891602,0.19403076,0.117248535
20:18:41.333;-0.22984336,-0.4213795,8.121132,-1.7089844,0.7324219,0.061035156,10.488,-21.482,6.808,243.98608,1000,1000,1000,1000,0.0,0.0,0.0,0.0,1013.13995,26.2,0.91686904,289.11075,3.3085868,2.8911076,-4.257875,1.3731635,0.10840435,-2.969044,1.6189693,-2.7190552,1.4008789,0.19696045,0.117248535
20:18:41.345;-0.22984336,-0.4213795,8.121132,-1.7089844,0.7324219,0.061035156,10.488,-21.482,6.808,243.98608,1000,1000,1000,1000,0.0,0.0,0.0,0.0,1013.13995,26.2,0.91686904,291.5989,3.3334684,2.9159892,-4.2521963,1.3866929,0.109299004,-2.969044,1.6189693,-2.739563,1.409668,0.19769287,0.117248535
20:18:41.359;-0.076614454,-0.61291564,8.0445175,-1.7700195,0.91552734,0.5493164,10.304,-21.665998,7.084,243.71643,1000,1000,1000,1000,0.0,0.0,0.0,0.0,1013.07996,26.2,1.4162588,291.5989,3.3334684,2.9159892,-4.2785726,1.3824017,0.11568846,-4.356778,0.5440808,-2.7643433,1.4224854,0.19854736,0.38690186
20:18:41.373;-0.076614454,-0.61291564,8.0445175,-1.7700195,0.91552734,0.5493164,10.304,-21.665998,7.084,243.71643,1000,1000,1000,1000,0.0,0.0,0.0,0.0,1013.07996,26.2,1.4162588,291.5989,3.3334684,2.9159892,-4.304421,1.3781964,0.12864934,-4.356778,0.5440808,-2.7891235,1.4353027,0.2062378,0.38690186
20:18:41.388;-0.038307227,-0.49799395,8.00621,-1.7089844,0.79345703,-0.12207031,10.304,-21.665998,7.084,243.71643,1000,1000,1000,1000,0.0,0.0,0.0,0.0,1013.07996,26.2,1.4162588,291.5989,3.3334684,2.9159892,-4.3129644,1.3669909,0.141351,-3.5592263,0.27361163,-2.8130493,1.4464111,0.21392822,0.38690186
20:18:41.401;-0.038307227,-0.49799395,8.00621,-1.7089844,0.79345703,-0.12207031,10.304,-21.665998,7.084,243.71643,1000,1000,1000,1000,0.0,0.0,0.0,0.0,1013.13995,26.2,0.91686904,9999999.0,0.91686904,9999999.0,-4.321337,1.3560096,0.1445872,-3.5592263,0.27361163,-2.836975,1.4575195,0.21221924,0.38690186
20:18:41.415;-0.076614454,-0.38307226,8.00621,-1.8920898,1.0375977,0.36621094,10.304,-21.665998,7.084,243.71643,1000,1000,1000,1000,0.0,0.0,0.0,0.0,1013.13995,26.2,0.91686904,9999999.0,0.91686904,9999999.0,-4.3156543,1.354078,0.14775868,-2.7392104,0.54764175,-2.8634644,1.4720459,0.21051025,0.38690186
20:18:41.430;-0.076614454,-0.38307226,8.00621,-1.8920898,1.0375977,0.36621094,10.304,-21.665998,7.084,243.71643,1000,1000,1000,1000,0.0,0.0,0.0,0.0,1013.13995,26.2,0.91686904,9999999.0,0.91686904,9999999.0,-4.3119392,1.353202,0.15792483,-2.7392104,0.54764175,-2.8918457,1.4876099,0.21600342,0.38690186
20:18:41.443;-0.19153613,-0.49799395,8.00621,-1.6479492,0.9765625,0.12207031,10.212,-21.665998,6.8999996,243.57214,1000,1000,1000,1000,0.0,0.0,0.0,0.0,1013.1,26.2,1.2497956,9999999.0,1.2497956,9999999.0,-4.3178606,1.3659356,0.17005563,-3.5582514,1.3678086,-2.913269,1.5003052,0.22076416,0.53118896
20:18:41.458;-0.19153613,-0.49799395,8.00621,-1.6479492,0.9765625,0.12207031,10.212,-21.665998,6.8999996,243.57214,1000,1000,1000,1000,0.0,0.0,0.0,0.0,1013.1,26.2,1.2497956,9999999.0,1.2497956,9999999.0,-4.3252783,1.3793715,0.1789531,-3.5582514,1.3678086,-2.9363403,1.513977,0.22247314,0.53118896
20:18:41.473;-0.11492168,-0.61291564,8.0445175,-1.8310547,0.91552734,0.061035156,10.212,-21.665998,6.8999996,243.57214,1000,1000,1000,1000,0.0,0.0,0.0,0.0,1013.1,26.2,1.2497956,9999999.0,1.2497956,9999999.0,-4.3546143,1.3824613,0.18791187,-4.356532,0.8160905,-2.9656372,1.5286255,0.22442627,0.53118896
20:18:41.486;-0.11492168,-0.61291564,8.0445175,-1.8310547,0.91552734,0.061035156,10.212,-21.665998,6.8999996,243.57214,1000,1000,1000,1000,0.0,0.0,0.0,0.0,1013.1,26.2,1.2497956,9999999.0,1.2497956,9999999.0,-4.376186,1.3819005,0.19549517,-4.356532,0.8160905,-2.9876099,1.5396118,0.22515869,0.53118896
20:18:41.500;-0.076614454,-0.45968673,8.00621,-1.953125,0.91552734,0.4272461,10.488,-20.929998,6.9920006,243.92758,1000,1000,1000,1000,0.0,0.0,0.0,0.0,1013.16,26.2,0.7504058,9999999.0,0.7504058,9999999.0,-4.3811784,1.3777709,0.19593768,-3.2859519,0.5473668,-3.0149536,1.5524292,0.22601318,0.17575073
20:18:41.515;-0.076614454,-0.45968673,8.00621,-1.953125,0.91552734,0.4272461,10.488,-20.929998,6.9920006,243.92758,1000,1000,1000,1000,0.0,0.0,0.0,0.0,1013.16,26.2,0.7504058,9999999.0,0.7504058,9999999.0,-4.3898993,1.3755183,0.20223315,-3.2859519,0.5473668,-3.0462036,1.5670776,0.23284912,0.17575073
20:18:41.528;-0.19153613,-0.5746084,8.082825,-1.8920898,0.8544922,0.061035156,10.488,-20.929998,6.9920006,243.92758,1000,1000,1000,1000,0.0,0.0,0.0,0.0,1013.16,26.2,0.7504058,291.5989,3.3334684,2.9159892,-4.4075103,1.3859752,0.20714661,-4.0651813,1.3540499,-3.0708008,1.578186,0.23840332,0.17575073
20:18:41.542;-0.19153613,-0.5746084,8.082825,-1.8920898,0.8544922,0.061035156,10.488,-20.929998,6.9920006,243.92758,1000,1000,1000,1000,0.0,0.0,0.0,0.0,1013.19995,26.2,0.41747928,291.5989,3.3334684,2.9159892,-4.4266233,1.3970604,0.2073561,-4.0651813,1.3540499,-3.09729,1.5901489,0.23925781,0.17575073
20:18:41.556;-0.11492168,-0.5363012,8.121132,-1.5258789,0.8544922,0.12207031,10.304,-21.482,6.9920006,243.69586,1000,1000,1000,1000,0.0,0.0,0.0,0.0,1013.19995,26.2,0.41747928,291.5989,3.3334684,2.9159892,-4.434582,1.3970222,0.21219578,-3.7778208,0.80897343,-3.1186523,1.6021118,0.2401123,0.4074707
20:18:41.570;-0.11492168,-0.5363012,8.121132,-1.5258789,0.8544922,0.12207031,10.304,-21.482,6.9920006,243.69586,1000,1000,1000,1000,0.0,0.0,0.0,0.0,1013.19995,26.2,0.41747928,291.5989,3.3334684,2.9159892,-4.442382,1.3969849,0.21777608,-3.7778208,0.80897343,-3.1400146,1.6140747,0.24182129,0.4074707
20:18:41.584;-0.2681506,-0.5363012,7.929596,-1.7089844,1.0986328,0.36621094,10.304,-21.482,6.9920006,243.69586,1000,1000,1000,1000,0.0,0.0,0.0,0.0,1013.07996,26.2,1.4162588,358.43372,4.0018167,3.5843372,-4.4543214,1.4227663,0.22324476,-3.866981,1.9323893,-3.1639404,1.6294556,0.24353027,0.4074707
20:18:41.598;-0.2681506,-0.5363012,7.929596,-1.7089844,1.0986328,0.36621094,10.304,-21.482,6.9920006,243.69586,1000,1000,1000,1000,0.0,0.0,0.0,0.0,1013.07996,26.2,1.4162588,358.43372,4.0018167,3.5843372,-4.466022,1.448032,0.23195368,-3.866981,1.9323893,-3.1878662,1.6448364,0.24865723,0.4074707
20:18:41.612;0.038307227,-0.5363012,8.121132,-1.7700195,0.8544922,0.12207031,10.304,-21.482,6.9920006,243.69586,1000,1000,1000,1000,0.0,0.0,0.0,0.0,1013.07996,26.2,1.4162588,358.43372,4.0018167,3.5843372,-4.476549,1.4254016,0.24048842,-3.778156,-0.26967373,-3.2126465,1.6567993,0.25378418,0.4074707
20:18:41.627;0.038307227,-0.5363012,8.121132,-1.7700195,0.8544922,0.12207031,10.304,-21.482,6.9920006,243.69586,1000,1000,1000,1000,0.0,0.0,0.0,0.0,1013.02997,26.2,1.8310958,185.02258,2.267705,1.8502258,-4.4886007,1.4040611,0.2456225,-3.778156,-0.26967373,-3.2391968,1.6696167,0.25561523,0.4074707
20:18:41.642;-0.15322891,-0.45968673,8.0445175,-1.6479492,0.9765625,0.12207031,10.304,-21.757998,7.084,243.72664,1000,1000,1000,1000,0.0,0.0,0.0,0.0,1013.02997,26.2,1.8310958,185.02258,2.267705,1.8502258,-4.4884515,1.412124,0.25003836,-3.2698963,1.0894395,-3.263916,1.6842651,0.2574463,0.37669373
20:18:41.657;-0.15322891,-0.45968673,8.0445175,-1.6479492,0.9765625,0.12207031,10.304,-21.757998,7.084,243.72664,1000,1000,1000,1000,0.0,0.0,0.0,0.0,1013.02997,26.2,1.8310958,185.02258,2.267705,1.8502258,-4.488305,1.4200258,0.2543659,-3.2698963,1.0894395,-3.2886353,1.6989136,0.25927734,0.37669373
20:18:41.671;-0.11492168,-0.5746084,8.082825,-1.5869141,0.8544922,0.4272461,10.304,-21.757998,7.084,243.72664,1000,1000,1000,1000,0.0,0.0,0.0,0.0,1013.07,26.2,1.4981693,185.02258,2.267705,1.8502258,-4.5016294,1.4195994,0.25848725,-4.0659094,0.81252676,-3.310852,1.7108765,0.26098633,0.37669373
20:18:41.696;-0.11492168,-0.5746084,8.082825,-1.5869141,0.8544922,0.4272461,10.304,-21.757998,7.084,243.72664,1000,1000,1000,1000,0.0,0.0,0.0,0.0,1013.07,26.2,1.4981693,185.02258,2.267705,1.8502258,-4.531794,1.428393,0.2713189,-4.0659094,0.81252676,-3.350525,1.7322388,0.27166748,0.37669373
20:18:41.702;-0.11492168,-0.5746084,8.082825,-1.5869141,0.8544922,0.4272461,10.304,-21.757998,7.084,243.72664,1000,1000,1000,1000,0.0,0.0,0.0,0.0,1013.07,26.2,1.4981693,185.02258,2.267705,1.8502258,-4.5318074,1.4211,0.27593863,-4.0659094,0.81252676,-3.3600464,1.7373657,0.27423096,0.37669373
20:18:41.714;-0.11492168,-0.49799395,8.00621,-1.5869141,1.159668,0.18310547,10.396,-21.482,7.084,243.84094,1000,1000,1000,1000,0.0,0.0,0.0,0.0,1013.16,26.2,0.7504058,185.09169,2.2683961,1.8509169,-4.529456,1.421595,0.28027338,-3.558901,0.8207849,-3.3775024,1.7501221,0.27893066,0.26239014
20:18:41.727;-0.11492168,-0.49799395,8.00621,-1.5869141,1.159668,0.18310547,10.396,-21.482,7.084,243.84094,1000,1000,1000,1000,0.0,0.0,0.0,0.0,1013.16,26.2,0.7504058,185.09169,2.2683961,1.8509169,-4.5318174,1.4254894,0.28242794,-3.558901,0.8207849,-3.3997192,1.7663574,0.28149414,0.26239014
20:18:41.742;-0.15322891,-0.45968673,8.00621,-1.8310547,0.79345703,0.18310547,10.396,-21.482,7.084,243.84094,1000,1000,1000,1000,0.0,0.0,0.0,0.0,1013.16,26.2,0.7504058,185.09169,2.2683961,1.8509169,-4.5338078,1.4305362,0.28471884,-3.2855017,1.0946337,-3.427185,1.7782593,0.28424072,0.26239014
20:18:41.755;-0.19153613,-0.5363012,8.0445175,-1.7089844,0.8544922,0.12207031,10.58,-20.929998,6.9920006,244.07498,1000,1000,1000,1000,0.0,0.0,0.0,0.0,1013.13995,26.2,0.91686904,185.09169,2.2683961,1.8509169,-4.5411644,1.4400297,0.28192425,-3.8129976,1.3609078,-3.4494019,1.7893677,0.2866211,0.02835083
20:18:41.769;-0.19153613,-0.5363012,8.0445175,-1.7089844,0.8544922,0.12207031,10.58,-20.929998,6.9920006,244.07498,1000,1000,1000,1000,0.0,0.0,0.0,0.0,1013.13995,26.2,0.91686904,185.02258,2.267705,1.8502258,-4.5500484,1.4501709,0.2785276,-3.8129976,1.3609078,-3.4733276,1.8013306,0.28833008,0.02835083
20:18:41.784;-0.15322891,-0.49799395,8.082825,-1.6479492,0.79345703,0.0,10.58,-20.929998,6.9920006,244.07498,1000,1000,1000,1000,0.0,0.0,0.0,0.0,1013.13995,26.2,0.91686904,185.02258,2.267705,1.8502258,-4.553772,1.454511,0.2753185,-3.5249834,1.0839909,-3.4980469,1.8132324,0.29016113,0.02835083
20:18:41.797;-0.15322891,-0.49799395,8.082825,-1.6479492,0.79345703,0.0,10.58,-20.929998,6.9920006,244.07498,1000,1000,1000,1000,0.0,0.0,0.0,0.0,1013.13995,26.2,0.91686904,185.02258,2.267705,1.8502258,-4.554191,1.4572092,0.27037916,-3.5249834,1.0839909,-3.5194702,1.8235474,0.29016113,0.02835083
20:18:41.811;-0.22984336,-0.5363012,8.00621,-1.8310547,0.9765625,0.0,10.58,-20.929998,6.9920006,244.07498,1000,1000,1000,1000,0.0,0.0,0.0,0.0,1013.13995,26.2,0.91686904,185.09169,2.2683961,1.8509169,-4.564843,1.474278,0.2655386,-3.8306963,1.6407284,-3.545105,1.8372192,0.29016113,0.02835083
20:18:41.826;-0.22984336,-0.5363012,8.00621,-1.8310547,0.9765625,0.0,10.58,-20.929998,6.9920006,244.07498,1000,1000,1000,1000,0.0,0.0,0.0,0.0,1013.13995,26.2,0.91686904,185.09169,2.2683961,1.8509169,-4.577077,1.4919624,0.26079485,-3.8306963,1.6407284,-3.5725708,1.8518677,0.29016113,0.02835083
20:18:41.840;-0.038307227,-0.5363012,8.121132,-1.5869141,0.91552734,0.36621094,10.396,-21.482,6.532,243.84094,1000,1000,1000,1000,0.0,0.0,0.0,0.0,1013.1,26.2,1.2497956,185.09169,2.2683961,1.8509169,-4.5813155,1.4791806,0.26082677,-3.778156,0.26967373,-3.5932007,1.8637695,0.29016113,0.26239014
20:18:41.853;-0.038307227,-0.5363012,8.121132,-1.5869141,0.91552734,0.36621094,10.396,-21.482,6.532,243.84094,1000,1000,1000,1000,0.0,0.0,0.0,0.0,1013.1,26.2,1.2497956,185.09169,2.2683961,1.8509169,-4.5870247,1.4675516,0.26588246,-3.778156,0.26967373,-3.6154175,1.8765869,0.2952881,0.26239014
20:18:41.868;-0.2681506,-0.49799395,8.0445175,-1.7089844,0.8544922,0.0,10.396,-21.482,6.532,243.84094,1000,1000,1000,1000,0.0,0.0,0.0,0.0,1013.1,26.2,1.2497956,187.51074,2.2925868,1.8751074,-4.591214,1.4888718,0.27119592,-3.5403998,1.9055076,-3.6410522,1.8894043,0.30078125,0.26239014
20:18:41.882;-0.2681506,-0.49799395,8.0445175,-1.7089844,0.8544922,0.0,10.396,-21.482,6.532,243.84094,1000,1000,1000,1000,0.0,0.0,0.0,0.0,1013.19995,26.2,0.41747928,187.51074,2.2925868,1.8751074,-4.5919704,1.5080907,0.27101982,-3.5403998,1.9055076,-3.663269,1.9005127,0.30078125,0.26239014
20:18:41.896;-0.11492168,-0.5363012,8.0445175,-1.7700195,1.0375977,0.0,10.304,-21.85,7.084,243.73679,1000,1000,1000,1000,0.0,0.0,0.0,0.0,1013.19995,26.2,0.41747928,187.51074,2.2925868,1.8751074,-4.6024237,1.5095145,0.27293035,-3.813687,0.816643,-3.6898193,1.9160767,0.30078125,0.36654663
20:18:41.910;-0.11492168,-0.5363012,8.0445175,-1.7700195,1.0375977,0.0,10.304,-21.85,7.084,243.73679,1000,1000,1000,1000,0.0,0.0,0.0,0.0,1013.19995,26.2,0.41747928,185.09169,2.2683961,1.8509169,-4.6109333,1.509893,0.27480268,-3.813687,0.816643,-3.7145996,1.930603,0.30078125,0.36654663
20:18:41.924;-0.076614454,-0.5746084,8.0445175,-1.6479492,0.79345703,0.30517578,10.304,-21.85,7.084,243.73679,1000,1000,1000,1000,0.0,0.0,0.0,0.0,1013.13995,26.2,0.91686904,185.09169,2.2683961,1.8509169,-4.623033,1.5014668,0.27663755,-4.085432,0.544271,-3.737671,1.9417114,0.30078125,0.36654663
20:18:41.939;-0.076614454,-0.5746084,8.0445175,-1.6479492,0.79345703,0.30517578,10.304,-21.85,7.084,243.73679,1000,1000,1000,1000,0.0,0.0,0.0,0.0,1013.13995,26.2,0.91686904,185.09169,2.2683961,1.8509169,-4.6365056,1.4939866,0.28292182,-4.085432,0.544271,-3.7623901,1.9536133,0.3053589,0.36654663
20:18:41.954;-0.038307227,-0.4213795,7.967903,-2.0141602,1.0375977,0.12207031,10.488,-21.113997,6.9920006,243.94727,1000,1000,1000,1000,0.0,0.0,0.0,0.0,1013.13995,26.2,0.91686904,185.09169,2.2683961,1.8509169,-4.633928,1.4848611,0.28487083,-3.0272105,0.27507398,-3.7926025,1.9691772,0.30993652,0.1560669
20:18:41.967;-0.038307227,-0.4213795,7.967903,-2.0141602,1.0375977,0.12207031,10.488,-21.113997,6.9920006,243.94727,1000,1000,1000,1000,0.0,0.0,0.0,0.0,1013.16,26.2,0.7504058,185.09169,2.2683961,1.8509169,-4.627454,1.4738845,0.28384995,-3.0272105,0.27507398,-3.8187866,1.982666,0.31152344,0.1560669
20:18:41.982;-0.15322891,-0.5363012,7.967903,-1.6479492,0.9765625,0.24414063,10.488,-21.113997,6.9920006,243.94727,1000,1000,1000,1000,0.0,0.0,0.0,0.0,1013.16,26.2,0.7504058,185.09169,2.2683961,1.8509169,-4.6361284,1.4807466,0.28308874,-3.8499293,1.0992197,-3.8435059,1.9973145,0.3133545,0.1560669
20:18:41.996;-0.15322891,-0.5363012,7.967903,-1.6479492,0.9765625,0.24414063,10.488,-21.113997,6.9920006,243.94727,1000,1000,1000,1000,0.0,0.0,0.0,0.0,1013.16,26.2,0.7504058,185.09169,2.2683961,1.8509169,-4.6430144,1.4865144,0.28389794,-3.8499293,1.0992197,-3.8665771,2.0109863,0.31677246,0.1560669
20:18:42.010;-0.19153613,-0.5746084,8.082825,-1.8310547,0.8544922,0.18310547,10.488,-21.113997,6.9920006,243.94727,1000,1000,1000,1000,0.0,0.0,0.0,0.0,1013.19995,26.2,0.41747928,185.02258,2.267705,1.8502258,-4.65658,1.4955888,0.28469095,-4.0651813,1.3540499,-3.892212,2.0229492,0.32019043,0.1560669
20:18:42.024;-0.19153613,-0.5746084,8.082825,-1.8310547,0.8544922,0.18310547,10.488,-21.113997,6.9920006,243.94727,1000,1000,1000,1000,0.0,0.0,0.0,0.0,1013.19995,26.2,0.41747928,185.02258,2.267705,1.8502258,-4.669874,1.5044817,0.2846307,-4.0651813,1.3540499,-3.9178467,2.034912,0.3227539,0.1560669
20:18:42.038;-0.076614454,-0.5363012,7.967903,-1.7700195,0.91552734,-0.061035156,10.488,-21.021997,6.9920006,243.93744,1000,1000,1000,1000,0.0,0.0,0.0,0.0,1013.19995,26.2,0.41747928,185.02258,2.267705,1.8502258,-4.6777706,1.4979464,0.28476813,-3.8504615,0.5496604,-3.942627,2.0477295,0.32531738,0.16589355
20:18:42.053;-0.076614454,-0.5363012,7.967903,-1.7700195,0.91552734,-0.061035156,10.488,-21.021997,6.9920006,243.93744,1000,1000,1000,1000,0.0,0.0,0.0,0.0,1013.13995,26.2,0.91686904,185.02258,2.267705,1.8502258,-4.685509,1.4915417,0.28155324,-3.8504615,0.5496604,-3.9674072,2.0605469,0.3244629,0.16589355
20:18:42.066;-0.076614454,-0.4213795,8.00621,-1.7700195,1.0986328,0.4272461,10.488,-21.021997,6.9920006,243.93744,1000,1000,1000,1000,0.0,0.0,0.0,0.0,1013.13995,26.2,0.91686904,185.02258,2.267705,1.8502258,-4.676337,1.4877344,0.27840263,-3.01265,0.5475105,-3.9921875,2.0759277,0.3236084,0.16589355
20:18:42.081;-0.076614454,-0.4213795,8.00621,-1.7700195,1.0986328,0.4272461,10.488,-21.021997,6.9920006,243.93744,1000,1000,1000,1000,0.0,0.0,0.0,0.0,1013.13995,26.2,0.91686904,185.02258,2.267705,1.8502258,-4.6690826,1.4850799,0.28243297,-3.01265,0.5475105,-4.018738,2.0924072,0.3300171,0.16589355
20:18:42.095;-0.19153613,-0.45968673,8.0445175,-1.6479492,0.79345703,0.18310547,10.58,-21.021997,6.9920006,244.08447,1000,1000,1000,1000,0.0,0.0,0.0,0.0,1013.13995,26.2,0.91686904,185.02258,2.267705,1.8502258,-4.662087,1.4927211,0.28260463,-3.2695634,1.361707,-4.040161,2.1027222,0.3355713,0.018859863
20:18:42.109;-0.19153613,-0.45968673,8.0445175,-1.6479492,0.79345703,0.18310547,10.58,-21.021997,6.9920006,244.08447,1000,1000,1000,1000,0.0,0.0,0.0,0.0,1013.16,26.2,0.7504058,185.02258,2.267705,1.8502258,-4.658461,1.5017645,0.2800214,-3.2695634,1.361707,-4.0648804,2.114624,0.33831787,0.018859863
20:18:42.123;-0.15322891,-0.49799395,8.0445175,-1.6479492,0.91552734,0.061035156,10.58,-21.021997,6.9920006,244.08447,1000,1000,1000,1000,0.0,0.0,0.0,0.0,1013.16,26.2,0.7504058,185.02258,2.267705,1.8502258,-4.6587358,1.506073,0.2773104,-3.5417204,1.0891318,-4.0879517,2.1274414,0.34088135,0.018859863
20:18:42.137;-0.15322891,-0.49799395,8.0445175,-1.6479492,0.91552734,0.061035156,10.58,-21.021997,6.9920006,244.08447,1000,1000,1000,1000,0.0,0.0,0.0,0.0,1013.16,26.2,0.7504058,185.02258,2.267705,1.8502258,-4.659005,1.5102953,0.2729788,-3.5417204,1.0891318,-4.111023,2.1402588,0.34173584,0.018859863
20:18:42.151;-0.11492168,-0.5363012,8.0445175,-1.8920898,0.91552734,0.36621094,10.58,-21.113997,6.9920006,244.09393,1000,1000,1000,1000,0.0,0.0,0.0,0.0,1013.16,26.2,0.7504058,185.09169,2.2683961,1.8509169,-4.668058,1.5089833,0.26854464,-3.813687,0.816643,-4.137512,2.1530762,0.34259033,0.009399414
20:18:42.166;-0.11492168,-0.5363012,8.0445175,-1.8920898,0.91552734,0.36621094,10.58,-21.113997,6.9920006,244.09393,1000,1000,1000,1000,0.0,0.0,0.0,0.0,1013.16,26.2,0.7504058,185.09169,2.2683961,1.8509169,-4.678784,1.5085948,0.26874506,-3.813687,0.816643,-4.1658936,2.166809,0.3480835,0.009399414
20:18:42.182;-0.076614454,-0.5746084,8.0445175,-1.953125,1.0986328,0.061035156,10.58,-21.113997,6.9920006,244.09393,1000,1000,1000,1000,0.0,0.0,0.0,0.0,1013.16,26.2,0.7504058,185.09169,2.2683961,1.8509169,-4.6975417,1.5065348,0.26930034,-4.085432,0.544271,-4.1971436,2.1843872,0.35394287,0.009399414
20:18:42.195;-0.076614454,-0.5746084,8.0445175,-1.953125,1.0986328,0.061035156,10.58,-21.113997,6.9920006,244.09393,1000,1000,1000,1000,0.0,0.0,0.0,0.0,1013.13995,26.2,0.91686904,185.02258,2.267705,1.8502258,-4.710182,1.501286,0.2648799,-4.085432,0.544271,-4.222534,2.1986694,0.35473633,0.009399414
20:18:42.208;-0.11492168,-0.49799395,8.082825,-1.5258789,0.9765625,0.30517578,10.58,-21.113997,6.9920006,244.09393,1000,1000,1000,1000,0.0,0.0,0.0,0.0,1013.13995,26.2,0.91686904,185.02258,2.267705,1.8502258,-4.7059236,1.4999624,0.2605479,-3.5252597,0.8130356,-4.2423706,2.2113647,0.3555298,0.009399414
20:18:42.226;-0.11492168,-0.49799395,8.082825,-1.5258789,0.9765625,0.30517578,10.58,-21.113997,6.9920006,244.09393,1000,1000,1000,1000,0.0,0.0,0.0,0.0,1013.13995,26.2,0.91686904,185.02258,2.267705,1.8502258,-4.7092266,1.5034505,0.26090825,-3.5252597,0.8130356,-4.2698364,2.2289429,0.36102295,0.009399414
20:18:42.240;-0.19153613,-0.5363012,7.967903,-1.7700195,1.0986328,0.24414063,10.58,-21.113997,6.8999996,244.09393,1000,1000,1000,1000,0.0,0.0,0.0,0.0,1013.13995,26.2,0.91686904,185.02258,2.267705,1.8502258,-4.7163177,1.5159334,0.26006508,-3.8495302,1.3739297,-4.2946167,2.2443237,0.3652954,0.009399414
20:18:42.264;-0.19153613,-0.5363012,7.967903,-1.7700195,1.0986328,0.24414063,10.58,-21.113997,6.8999996,244.09393,1000,1000,1000,1000,0.0,0.0,0.0,0.0,1013.13995,26.2,0.91686904,185.02258,2.267705,1.8502258,-4.740613,1.5389332,0.26079395,-3.8495302,1.3739297,-4.337097,2.270691,0.3711548,0.009399414
20:18:42.271;-0.19153613,-0.45968673,8.00621,-1.6479492,0.9765625,0.24414063,10.58,-21.113997,6.8999996,244.09393,1000,1000,1000,1000,0.0,0.0,0.0,0.0,1013.13995,26.2,0.91686904,185.02258,2.267705,1.8502258,-4.7228093,1.5422176,0.25744087,-3.285164,1.3681985,-4.348633,2.2775269,0.37286377,0.009399414
20:18:42.284;-0.19153613,-0.45968673,8.00621,-1.6479492,0.9765625,0.24414063,10.58,-21.113997,6.8999996,244.09393,1000,1000,1000,1000,0.0,0.0,0.0,0.0,1013.1,26.2,1.2497956,185.02258,2.267705,1.8502258,-4.7150517,1.5511786,0.2555904,-3.285164,1.3681985,-4.370056,2.2902222,0.3760376,0.009399414
20:18:42.300;-0.076614454,-0.49799395,8.0445175,-1.7089844,0.91552734,0.12207031,10.58,-21.113997,6.8999996,244.09393,1000,1000,1000,1000,0.0,0.0,0.0,0.0,1013.1,26.2,1.2497956,185.02258,2.267705,1.8502258,-4.716717,1.5445056,0.25425547,-3.542201,0.54461515,-4.395691,2.303955,0.3796997,0.009399414
20:18:42.313;-0.076614454,-0.49799395,8.0445175,-1.7089844,0.91552734,0.12207031,10.58,-21.113997,6.8999996,244.09393,1000,1000,1000,1000,0.0,0.0,0.0,0.0,1013.16,26.2,0.7504058,185.02258,2.267705,1.8502258,-4.716674,1.5370688,0.25103316,-3.542201,0.54461515,-4.4196167,2.3167725,0.3814087,0.009399414
20:18:42.327;-0.11492168,-0.49799395,8.00621,-1.7089844,0.9765625,0.24414063,10.58,-21.113997,6.8999996,244.09393,1000,1000,1000,1000,0.0,0.0,0.0,0.0,1013.16,26.2,0.7504058,185.02258,2.267705,1.8502258,-4.7169657,1.5361416,0.2478753,-3.558901,0.8207849,-4.4435425,2.3304443,0.38311768,0.009399414
20:18:42.341;-0.11492168,-0.49799395,8.00621,-1.7089844,0.9765625,0.24414063,10.58,-21.113997,6.8999996,244.09393,1000,1000,1000,1000,0.0,0.0,0.0,0.0,1013.16,26.2,0.7504058,185.02258,2.267705,1.8502258,-4.717252,1.535233,0.2464554,-3.558901,0.8207849,-4.4674683,2.3441162,0.38653564,0.009399414
20:18:42.355;-0.19153613,-0.49799395,8.0445175,-1.6479492,0.8544922,0.0,10.58,-21.021997,6.9920006,244.08447,1000,1000,1000,1000,0.0,0.0,0.0,0.0,1013.13995,26.2,0.91686904,187.51074,2.2925868,1.8751074,-4.716344,1.5434785,0.2452531,-3.5413601,1.3613225,-4.4905396,2.356079,0.3899536,0.018859863
20:18:42.369;-0.19153613,-0.49799395,8.0445175,-1.6479492,0.8544922,0.0,10.58,-21.021997,6.9920006,244.08447,1000,1000,1000,1000,0.0,0.0,0.0,0.0,1013.13995,26.2,0.91686904,187.51074,2.2925868,1.8751074,-4.715454,1.551559,0.24072523,-3.5413601,1.3613225,-4.513611,2.368042,0.3899536,0.018859863
20:18:42.383;-0.15322891,-0.5363012,8.0445175,-1.7089844,0.91552734,0.061035156,10.58,-21.021997,6.9920006,244.08447,1000,1000,1000,1000,0.0,0.0,0.0,0.0,1013.13995,26.2,0.91686904,187.51074,2.2925868,1.8751074,-4.72086,1.5548648,0.23628792,-3.8133852,1.0888,-4.5375366,2.3808594,0.3899536,0.018859863
20:18:42.397;-0.15322891,-0.5363012,8.0445175,-1.7089844,0.91552734,0.061035156,10.58,-21.021997,6.9920006,244.08447,1000,1000,1000,1000,0.0,0.0,0.0,0.0,1013.07,26.2,1.4981693,187.51074,2.2925868,1.8751074,-4.7261577,1.5581045,0.23277676,-3.8133852,1.0888,-4.5614624,2.3936768,0.3908081,0.018859863
20:18:42.411;-0.11492168,-0.5363012,8.0445175,-1.5869141,0.7324219,0.061035156,10.58,-21.021997,6.808,244.08447,1000,1000,1000,1000,0.0,0.0,0.0,0.0,1013.07,26.2,1.4981693,9999999.0,1.4981693,9999999.0,-4.7296805,1.5533241,0.22933583,-3.813687,0.816643,-4.583679,2.4039307,0.3916626,0.018859863
20:18:42.425;-0.11492168,-0.5363012,8.0445175,-1.5869141,0.7324219,0.061035156,10.58,-21.021997,6.808,244.08447,1000,1000,1000,1000,0.0,0.0,0.0,0.0,1013.07,26.2,1.4981693,9999999.0,1.4981693,9999999.0,-4.733133,1.5486393,0.22596371,-3.813687,0.816643,-4.605896,2.4141846,0.3925171,0.018859863
20:18:42.439;-0.11492168,-0.45968673,8.0445175,-1.7089844,1.0986328,0.061035156,10.58,-21.021997,6.808,244.08447,1000,1000,1000,1000,0.0,0.0,0.0,0.0,1013.13995,26.2,0.91686904,9999999.0,0.91686904,9999999.0,-4.7273207,1.5490822,0.22265904,-3.270155,0.8171227,-4.629822,2.4295654,0.39337158,0.018859863
20:18:42.453;-0.11492168,-0.45968673,8.0445175,-1.7089844,1.0986328,0.061035156,10.58,-21.021997,6.808,244.08447,1000,1000,1000,1000,0.0,0.0,0.0,0.0,1013.13995,26.2,0.91686904,9999999.0,0.91686904,9999999.0,-4.7216244,1.5495162,0.21942046,-3.270155,0.8171227,-4.6537476,2.4449463,0.39422607,0.018859863
20:18:42.468;-0.11492168,-0.49799395,8.082825,-1.8920898,1.0986328,0.12207031,10.58,-21.021997,6.808,244.08447,1000,1000,1000,1000,0.0,0.0,0.0,0.0,1013.13995,26.2,0.91686904,9999999.0,0.91686904,9999999.0,-4.7236567,1.5498599,0.21624665,-3.5252597,0.8130356,-4.680237,2.4603271,0.39508057,0.018859863
20:18:42.482;-0.11492168,-0.49799395,8.082825,-1.8920898,1.0986328,0.12207031,10.58,-21.021997,6.808,244.08447,1000,1000,1000,1000,0.0,0.0,0.0,0.0,1013.13995,26.2,0.91686904,9999999.0,0.91686904,9999999.0,-4.7256484,1.5501966,0.21397372,-3.5252597,0.8130356,-4.706726,2.475708,0.39678955,0.018859863
20:18:42.495;-0.19153613,-0.5746084,8.082825,-1.8920898,0.9765625,0.061035156,10.58,-21.021997,6.8999996,244.08447,1000,1000,1000,1000,0.0,0.0,0.0,0.0,1013.13995,26.2,0.91686904,9999999.0,0.91686904,9999999.0,-4.7383986,1.5596722,0.21174625,-4.0651813,1.3540499,-4.7332153,2.48938,0.39849854,0.018859863
20:18:42.511;-0.19153613,-0.5746084,8.082825,-1.8920898,0.9765625,0.061035156,10.58,-21.021997,6.8999996,244.08447,1000,1000,1000,1000,0.0,0.0,0.0,0.0,1013.13995,26.2,0.91686904,9999999.0,0.91686904,9999999.0,-4.7546024,1.5708723,0.20884556,-4.0651813,1.3540499,-4.763489,2.505005,0.3994751,0.018859863
20:18:42.525;-0.11492168,-0.5363012,8.082825,-1.7700195,0.8544922,0.0,10.58,-21.021997,6.8999996,244.08447,1000,1000,1000,1000,0.0,0.0,0.0,0.0,1013.13995,26.2,0.91686904,9999999.0,0.91686904,9999999.0,-4.757974,1.5665969,0.20582344,-3.7956693,0.81279016,-4.786499,2.5161133,0.40026855,0.018859863
20:18:42.538;-0.11492168,-0.5363012,8.082825,-1.7700195,0.8544922,0.0,10.58,-21.021997,6.8999996,244.08447,1000,1000,1000,1000,0.0,0.0,0.0,0.0,1013.07,26.2,1.4981693,187.51074,2.2925868,1.8751074,-4.761278,1.5624069,0.20208417,-3.7956693,0.81279016,-4.8095093,2.5272217,0.40026855,0.018859863
20:18:42.554;-0.076614454,-0.45968673,8.00621,-1.8310547,0.8544922,-0.061035156,10.58,-21.113997,6.8999996,244.09393,1000,1000,1000,1000,0.0,0.0,0.0,0.0,1013.07,26.2,1.4981693,187.51074,2.2925868,1.8751074,-4.760483,1.5555046,0.19823048,-3.2859519,0.5473668,-4.838806,2.5408936,0.40026855,0.009399414
20:18:42.565;-0.076614454,-0.45968673,8.00621,-1.8310547,0.8544922,-0.061035156,10.58,-21.113997,6.8999996,244.09393,1000,1000,1000,1000,0.0,0.0,0.0,0.0,1013.07,26.2,1.4981693,187.51074,2.2925868,1.8751074,-4.7525253,1.5453907,0.19373609,-3.2859519,0.5473668,-4.860779,2.5511475,0.39953613,0.009399414
20:18:42.580;-0.15322891,-0.4213795,8.00621,-1.7089844,0.79345703,0.061035156,10.58,-21.113997,6.8999996,244.09393,1000,1000,1000,1000,0.0,0.0,0.0,0.0,1013.13995,26.2,0.91686904,187.51074,2.2925868,1.8751074,-4.7428417,1.5480452,0.18915215,-3.012237,1.094921,-4.8864136,2.5630493,0.3986206,0.009399414
20:18:42.594;-0.15322891,-0.4213795,8.00621,-1.7089844,0.79345703,0.061035156,10.58,-21.113997,6.8999996,244.09393,1000,1000,1000,1000,0.0,0.0,0.0,0.0,1013.13995,26.2,0.91686904,185.02258,2.267705,1.8502258,-4.7316766,1.549869,0.18639451,-3.012237,1.094921,-4.9103394,2.5741577,0.3994751,0.009399414
20:18:42.607;-0.19153613,-0.61291564,7.967903,-1.7700195,0.7324219,0.36621094,10.58,-21.113997,6.8999996,244.09393,1000,1000,1000,1000,0.0,0.0,0.0,0.0,1013.13995,26.2,0.91686904,185.02258,2.267705,1.8502258,-4.747542,1.5556623,0.18363221,-4.39744,1.3729826,-4.9333496,2.5836792,0.40026855,0.009399414
20:18:42.622;-0.19153613,-0.61291564,7.967903,-1.7700195,0.7324219,0.36621094,10.58,-21.113997,6.8999996,244.09393,1000,1000,1000,1000,0.0,0.0,0.0,0.0,1013.07996,26.2,1.4162588,185.02258,2.267705,1.8502258,-4.766559,1.5627753,0.18553086,-4.39744,1.3729826,-4.9599,2.5946655,0.40576172,0.009399414
20:18:42.637;-0.076614454,-0.49799395,8.00621,-1.8310547,1.0375977,0.0,10.58,-21.021997,6.9920006,244.08447,1000,1000,1000,1000,0.0,0.0,0.0,0.0,1013.07996,26.2,1.4162588,187.51074,2.2925868,1.8751074,-4.769326,1.5577167,0.18758073,-3.5591042,0.54721075,-4.9873657,2.6102295,0.41125488,0.018859863
20:18:42.652;-0.076614454,-0.49799395,8.00621,-1.8310547,1.0375977,0.0,10.58,-21.021997,6.9920006,244.08447,1000,1000,1000,1000,0.0,0.0,0.0,0.0,1013.07996,26.2,1.4162588,187.51074,2.2925868,1.8751074,-4.7720385,1.5527594,0.18420632,-3.5591042,0.54721075,-5.0148315,2.6257935,0.41125488,0.018859863
20:18:42.665;-0.11492168,-0.4213795,8.00621,-1.7089844,0.8544922,0.0,10.58,-21.021997,6.9920006,244.08447,1000,1000,1000,1000,0.0,0.0,0.0,0.0,1013.07996,26.2,1.4162588,187.51074,2.2925868,1.8751074,-4.75862,1.5490152,0.1808994,-3.0124779,0.8212345,-5.0370483,2.6369019,0.41125488,0.018859863
20:18:42.679;-0.11492168,-0.4213795,8.00621,-1.7089844,0.8544922,0.0,10.58,-21.021997,6.9920006,244.08447,1000,1000,1000,1000,0.0,0.0,0.0,0.0,1013.07996,26.2,1.4162588,187.51074,2.2925868,1.8751074,-4.747144,1.5461832,0.1776586,-3.0124779,0.8212345,-5.060974,2.6488647,0.41125488,0.018859863
20:18:42.694;-0.19153613,-0.45968673,8.0445175,-1.6479492,0.8544922,0.18310547,10.488,-21.113997,6.808,243.94727,1000,1000,1000,1000,0.0,0.0,0.0,0.0,1013.07996,26.2,1.4162588,187.51074,2.2925868,1.8751074,-4.7418175,1.5550547,0.17722677,-3.2695634,1.361707,-5.0856934,2.6616821,0.41125488,0.1560669
20:18:42.707;-0.19153613,-0.45968673,8.0445175,-1.6479492,0.8544922,0.18310547,10.488,-21.113997,6.808,243.94727,1000,1000,1000,1000,0.0,0.0,0.0,0.0,1013.07996,26.2,1.4162588,187.51074,2.2925868,1.8751074,-4.733367,1.562074,0.17913634,-3.2695634,1.361707,-5.1071167,2.6727905,0.41363525,0.1560669
20:18:42.722;-0.15322891,-0.5746084,7.967903,-1.8310547,0.8544922,0.12207031,10.488,-21.113997,6.808,243.94727,1000,1000,1000,1000,0.0,0.0,0.0,0.0,1013.07996,26.2,1.4162588,187.51074,2.2925868,1.8751074,-4.748096,1.5653706,0.1813666,-4.1240067,1.0988532,-5.1345825,2.685608,0.41638184,0.1560669
20:18:42.735;-0.15322891,-0.5746084,7.967903,-1.8310547,0.8544922,0.12207031,10.488,-21.113997,6.808,243.94727,1000,1000,1000,1000,0.0,0.0,0.0,0.0,1013.07996,26.2,1.4162588,185.02258,2.267705,1.8502258,-4.7589417,1.5669265,0.18241577,-4.1240067,1.0988532,-5.158386,2.6967163,0.41796875,0.1560669
20:18:42.749;-0.11492168,-0.5363012,8.00621,-1.7700195,1.0375977,0.061035156,10.672,-21.206,6.808,244.24966,1000,1000,1000,1000,0.0,0.0,0.0,0.0,1013.13995,26.2,0.91686904,185.02258,2.267705,1.8502258,-4.7646847,1.5662344,0.17751563,-3.8318763,0.82053244,-5.1831665,2.7112427,0.41967773,-0.14633179
20:18:42.764;-0.11492168,-0.5363012,8.00621,-1.7700195,1.0375977,0.061035156,10.672,-21.206,6.808,244.24966,1000,1000,1000,1000,0.0,0.0,0.0,0.0,1013.13995,26.2,0.91686904,185.02258,2.267705,1.8502258,-4.770313,1.5655562,0.17187609,-3.8318763,0.82053244,-5.207947,2.725769,0.42053223,-0.14633179
20:18:42.777;-0.076614454,-0.4213795,8.0445175,-1.7089844,0.8544922,0.061035156,10.672,-21.206,6.808,244.24966,1000,1000,1000,1000,0.0,0.0,0.0,0.0,1013.13995,26.2,0.91686904,185.09169,2.2683961,1.8509169,-4.7583203,1.5568669,0.16634934,-2.9983315,0.5449106,-5.2318726,2.737732,0.42138672,-0.14633179
20:18:42.793;-0.076614454,-0.4213795,8.0445175,-1.7089844,0.8544922,0.061035156,10.672,-21.206,6.808,244.24966,1000,1000,1000,1000,0.0,0.0,0.0,0.0,1013.1,26.2,1.2497956,185.09169,2.2683961,1.8509169,-4.748243,1.5491889,0.16099294,-2.9983315,0.5449106,-5.2575073,2.7505493,0.42230225,-0.14633179
20:18:42.806;-0.15322891,-0.5363012,8.0445175,-1.7089844,0.6713867,0.12207031,10.672,-21.206,6.808,244.24966,1000,1000,1000,1000,0.0,0.0,0.0,0.0,1013.1,26.2,1.2497956,185.09169,2.2683961,1.8509169,-4.752993,1.5491925,0.15568385,-3.8133852,1.0888,-5.281433,2.7599487,0.42315674,-0.14633179
20:18:42.820;-0.15322891,-0.5363012,8.0445175,-1.7089844,0.6713867,0.12207031,10.672,-21.206,6.808,244.24966,1000,1000,1000,1000,0.0,0.0,0.0,0.0,1013.1,26.2,1.2497956,185.09169,2.2683961,1.8509169,-4.7559733,1.5485382,0.15119871,-3.8133852,1.0888,-5.30365,2.7686768,0.42474365,-0.14633179
20:18:42.834;-0.15322891,-0.5363012,8.00621,-1.8310547,0.6713867,0.30517578,10.488,-21.021997,6.8999996,243.93744,1000,1000,1000,1000,0.0,0.0,0.0,0.0,1013.19995,26.2,0.41747928,185.09169,2.2683961,1.8509169,-4.764402,1.5493165,0.15328704,-3.8315704,1.0939851,-5.3311157,2.7787476,0.4265747,0.16589355
20:18:42.848;-0.15322891,-0.5363012,8.00621,-1.8310547,0.6713867,0.30517578,10.488,-21.021997,6.8999996,243.93744,1000,1000,1000,1000,0.0,0.0,0.0,0.0,1013.19995,26.2,0.41747928,187.51074,2.2925868,1.8751074,-4.7708673,1.5494213,0.15772617,-3.8315704,1.0939851,-5.3567505,2.788147,0.43084717,0.16589355
20:18:42.862;-0.19153613,-0.5363012,8.0445175,-1.7700195,0.91552734,0.0,10.488,-21.021997,6.8999996,243.93744,1000,1000,1000,1000,0.0,0.0,0.0,0.0,1013.19995,26.2,0.41747928,187.51074,2.2925868,1.8751074,-4.775995,1.558212,0.16207652,-3.8129976,1.3609078,-5.381531,2.8009644,0.43511963,0.16589355
20:18:42.876;-0.19153613,-0.5363012,8.0445175,-1.7700195,0.91552734,0.0,10.488,-21.021997,6.8999996,243.93744,1000,1000,1000,1000,0.0,0.0,0.0,0.0,1013.19995,26.2,0.41747928,187.51074,2.2925868,1.8751074,-4.7810197,1.5668269,0.16215286,-3.8129976,1.3609078,-5.406311,2.8137817,0.43511963,0.16589355
20:18:42.892;-0.19153613,-0.5363012,8.0445175,-1.7700195,0.91552734,0.0,10.488,-21.021997,6.8999996,243.93744,1000,1000,1000,1000,0.0,0.0,0.0,0.0,1013.19995,26.2,0.41747928,187.51074,2.2925868,1.8751074,-4.7894135,1.577064,0.16222766,-3.8129976,1.3609078,-5.4346313,2.8284302,0.43511963,0.16589355
20:18:42.905;-0.076614454,-0.45968673,8.00621,-1.5258789,0.8544922,0.36621094,10.58,-21.113997,6.8999996,244.09393,1000,1000,1000,1000,0.0,0.0,0.0,0.0,1013.19995,26.2,0.41747928,187.51074,2.2925868,1.8751074,-4.7757936,1.5656816,0.1591711,-3.2859519,0.5473668,-5.451416,2.8378296,0.43511963,0.009399414
20:18:42.918;-0.076614454,-0.45968673,8.00621,-1.5258789,0.8544922,0.36621094,10.58,-21.113997,6.8999996,244.09393,1000,1000,1000,1000,0.0,0.0,0.0,0.0,1013.07996,26.2,1.4162588,187.51074,2.2925868,1.8751074,-4.7684274,1.5578763,0.16155899,-3.2859519,0.5473668,-5.474304,2.850647,0.4406128,0.009399414
20:18:42.934;-0.11492168,-0.45968673,8.00621,-1.8310547,0.79345703,0.061035156,10.58,-21.113997,6.8999996,244.09393,1000,1000,1000,1000,0.0,0.0,0.0,0.0,1013.07996,26.2,1.4162588,187.51074,2.2925868,1.8751074,-4.765691,1.554803,0.16389911,-3.2857642,0.821019,-5.50177,2.8625488,0.44610596,0.009399414
20:18:42.948;-0.19153613,-0.49799395,8.082825,-1.8920898,0.8544922,0.0,10.488,-21.113997,6.8999996,243.94727,1000,1000,1000,1000,0.0,0.0,0.0,0.0,1013.07996,26.2,1.4162588,187.51074,2.2925868,1.8751074,-4.768683,1.5633659,0.16463968,-3.5246284,1.3548976,-5.5301514,2.8753662,0.44702148,0.1560669
20:18:42.961;-0.19153613,-0.49799395,8.082825,-1.8920898,0.8544922,0.0,10.488,-21.113997,6.8999996,243.94727,1000,1000,1000,1000,0.0,0.0,0.0,0.0,1013.07996,26.2,1.4162588,9999999.0,1.4162588,9999999.0,-4.7679067,1.5700828,0.16446823,-3.5246284,1.3548976,-5.5547485,2.8864746,0.44702148,0.1560669
20:18:42.975;-0.30645782,-0.45968673,8.0445175,-1.6479492,0.79345703,0.48828125,10.488,-21.113997,6.8999996,243.94727,1000,1000,1000,1000,0.0,0.0,0.0,0.0,1013.07996,26.2,1.4162588,9999999.0,1.4162588,9999999.0,-4.760521,1.5931292,0.1643002,-3.2681227,2.1780918,-5.57782,2.897583,0.44702148,0.1560669
20:18:42.989;-0.30645782,-0.45968673,8.0445175,-1.6479492,0.79345703,0.48828125,10.488,-21.113997,6.8999996,243.94727,1000,1000,1000,1000,0.0,0.0,0.0,0.0,1013.07996,26.2,1.4162588,9999999.0,1.4162588,9999999.0,-4.753283,1.6157147,0.17083475,-3.2681227,2.1780918,-5.600891,2.9086914,0.45385742,0.1560669
20:18:43.004;-0.038307227,-0.5363012,7.967903,-1.8310547,0.8544922,-0.12207031,10.488,-21.113997,6.8999996,243.94727,1000,1000,1000,1000,0.0,0.0,0.0,0.0,1013.13995,26.2,0.91686904,9999999.0,0.91686904,9999999.0,-4.7621455,1.6014582,0.17771712,-3.8505945,0.2748365,-5.628357,2.9215088,0.46118164,0.1560669
20:18:43.017;-0.038307227,-0.5363012,7.967903,-1.8310547,0.8544922,-0.12207031,10.488,-21.113997,6.8999996,243.94727,1000,1000,1000,1000,0.0,0.0,0.0,0.0,1013.13995,26.2,0.91686904,9999999.0,0.91686904,9999999.0,-4.767242,1.585812,0.17572893,-3.8505945,0.2748365,-5.6521606,2.9326172,0.45959473,0.1560669
20:18:43.032;-0.22984336,-0.5363012,7.8912888,-1.8310547,0.7324219,-0.061035156,10.672,-21.113997,6.8999996,244.24065,1000,1000,1000,1000,0.0,0.0,0.0,0.0,1013.13995,26.2,0.91686904,9999999.0,0.91686904,9999999.0,-4.7747445,1.5974345,0.16779329,-3.8862667,1.6645001,-5.6777954,2.942871,0.45788574,-0.13731384
20:18:43.046;-0.22984336,-0.5363012,7.8912888,-1.8310547,0.7324219,-0.061035156,10.672,-21.113997,6.8999996,244.24065,1000,1000,1000,1000,0.0,0.0,0.0,0.0,1013.16,26.2,0.7504058,363.41006,4.05158,3.6341007,-4.7820973,1.6088247,0.16085376,-3.8862667,1.6645001,-5.70343,2.953125,0.45703125,-0.13731384
20:18:43.060;-0.2681506,-0.45968673,7.967903,-1.8310547,0.6713867,0.061035156,10.672,-21.113997,6.8999996,244.24065,1000,1000,1000,1000,0.0,0.0,0.0,0.0,1013.16,26.2,0.7504058,363.41006,4.05158,3.6341007,-4.7793717,1.6250036,0.1539932,-3.3000016,1.9242986,-5.730896,2.9631958,0.45611572,-0.13731384
20:18:43.074;-0.2681506,-0.45968673,7.967903,-1.8310547,0.6713867,0.061035156,10.672,-21.113997,6.8999996,244.24065,1000,1000,1000,1000,0.0,0.0,0.0,0.0,1013.16,26.2,0.7504058,363.41006,4.05158,3.6341007,-4.7749066,1.6402009,0.14900447,-3.3000016,1.9242986,-5.756531,2.9725952,0.4569702,-0.13731384
20:18:43.088;-0.076614454,-0.45968673,8.197746,-1.7700195,0.61035156,-0.061035156,10.488,-21.482,6.716,243.98608,1000,1000,1000,1000,0.0,0.0,0.0,0.0,1013.1,26.2,1.2497956,296.50613,3.3825407,2.9650614,-4.7678804,1.6264633,0.14920676,-3.2093465,0.5346192,-5.781311,2.9811401,0.4578247,0.117248535
20:18:43.102;-0.076614454,-0.45968673,8.197746,-1.7700195,0.61035156,-0.061035156,10.488,-21.482,6.716,243.98608,1000,1000,1000,1000,0.0,0.0,0.0,0.0,1013.1,26.2,1.2497956,296.50613,3.3825407,2.9650614,-4.7609944,1.6130004,0.14773019,-3.2093465,0.5346192,-5.8060913,2.989685,0.4569702,0.117248535
20:18:43.121;-0.076614454,-0.45968673,8.197746,-1.7700195,0.61035156,-0.061035156,10.488,-21.482,6.716,243.98608,1000,1000,1000,1000,0.0,0.0,0.0,0.0,1013.1,26.2,1.2497956,296.50613,3.3825407,2.9650614,-4.7629194,1.6027975,0.14598408,-3.2093465,0.5346192,-5.8397217,3.0012817,0.45581055,0.117248535
20:18:43.132;-0.15322891,-0.49799395,8.0445175,-1.7700195,1.0375977,0.12207031,10.488,-21.482,6.716,243.98608,1000,1000,1000,1000,0.0,0.0,0.0,0.0,1013.22,26.2,0.25101602,279.2272,3.2097514,2.792272,-4.757576,1.6037096,0.14475141,-3.5417204,1.0891318,-5.859192,3.0126953,0.45513916,0.117248535
20:18:43.147;-0.15322891,-0.49799395,8.0445175,-1.7700195,1.0375977,0.12207031,10.488,-21.482,6.716,243.98608,1000,1000,1000,1000,0.0,0.0,0.0,0.0,1013.22,26.2,0.25101602,279.2272,3.2097514,2.792272,-4.7575436,1.6076539,0.14587615,-3.5417204,1.0891318,-5.883972,3.0272217,0.45684814,0.117248535
20:18:43.162;-0.19153613,-0.61291564,8.082825,-1.6479492,0.9765625,0.24414063,10.212,-21.482,6.716,243.55084,1000,1000,1000,1000,0.0,0.0,0.0,0.0,1013.22,26.2,0.25101602,279.2272,3.2097514,2.792272,-4.774936,1.6178849,0.15592249,-4.3351927,1.3535813,-5.9103394,3.0428467,0.45880127,0.55249023
20:18:43.174;-0.19153613,-0.61291564,8.082825,-1.6479492,0.9765625,0.24414063,10.212,-21.482,6.716,243.55084,1000,1000,1000,1000,0.0,0.0,0.0,0.0,1013.22,26.2,0.25101602,185.09169,2.2683961,1.8509169,-4.785521,1.6240832,0.16672492,-4.3351927,1.3535813,-5.9301147,3.0545654,0.46173096,0.55249023
20:18:43.189;-0.2681506,-0.38307226,8.082825,-1.7089844,0.91552734,0.18310547,10.212,-21.482,6.716,243.55084,1000,1000,1000,1000,0.0,0.0,0.0,0.0,1013.16,26.2,0.7504058,185.09169,2.2683961,1.8509169,-4.769171,1.6430193,0.17802909,-2.7119198,1.8979822,-5.9557495,3.0682983,0.46539307,0.55249023
20:18:43.203;-0.2681506,-0.38307226,8.082825,-1.7089844,0.91552734,0.18310547,10.212,-21.482,6.716,243.55084,1000,1000,1000,1000,0.0,0.0,0.0,0.0,1013.16,26.2,0.7504058,185.09169,2.2683961,1.8509169,-4.7514734,1.6606796,0.18803051,-2.7119198,1.8979822,-5.9796753,3.0811157,0.46795654,0.55249023
20:18:43.217;-0.038307227,-0.45968673,8.159439,-1.7089844,0.61035156,0.12207031,10.212,-21.482,6.716,243.55084,1000,1000,1000,1000,0.0,0.0,0.0,0.0,1013.19995,26.2,0.41747928,185.09169,2.2683961,1.8509169,-4.744381,1.6412114,0.1978319,-3.2244873,0.26856643,-6.003601,3.0896606,0.47052002,0.55249023
20:18:43.232;-0.038307227,-0.45968673,8.159439,-1.7089844,0.61035156,0.12207031,10.212,-21.482,6.716,243.55084,1000,1000,1000,1000,0.0,0.0,0.0,0.0,1013.19995,26.2,0.41747928,187.51074,2.2925868,1.8751074,-4.7374306,1.6221325,0.20659986,-3.2244873,0.26856643,-6.027527,3.0982056,0.472229,0.55249023
20:18:43.248;-0.2681506,-0.5363012,7.929596,-1.7700195,0.8544922,0.18310547,10.212,-21.482,6.716,243.55084,1000,1000,1000,1000,0.0,0.0,0.0,0.0,1013.19995,26.2,0.41747928,187.51074,2.2925868,1.8751074,-4.7495103,1.6425735,0.21555135,-3.866981,1.9323893,-6.057617,3.112732,0.4743042,0.55249023
20:18:43.262;-0.2681506,-0.5363012,7.929596,-1.7700195,0.8544922,0.18310547,10.212,-21.482,6.716,243.55084,1000,1000,1000,1000,0.0,0.0,0.0,0.0,1013.16,26.2,0.7504058,187.51074,2.2925868,1.8751074,-4.75441,1.659256,0.22462288,-3.866981,1.9323893,-6.0806274,3.1238403,0.47668457,0.55249023
20:18:43.277;-0.11492168,-0.61291564,8.197746,-1.8310547,1.0375977,0.24414063,10.304,-21.757998,6.8999996,243.72664,1000,1000,1000,1000,0.0,0.0,0.0,0.0,1013.16,26.2,0.7504058,185.02258,2.267705,1.8502258,-4.7717466,1.6573421,0.23035593,-4.2754226,0.8009241,-6.1080933,3.1394043,0.47943115,0.37669373
20:18:43.291;-0.11492168,-0.61291564,8.197746,-1.8310547,1.0375977,0.24414063,10.304,-21.757998,6.8999996,243.72664,1000,1000,1000,1000,0.0,0.0,0.0,0.0,1013.16,26.2,0.7504058,185.02258,2.267705,1.8502258,-4.788737,1.6554664,0.23687156,-4.2754226,0.8009241,-6.135559,3.1549683,0.48309326,0.37669373
20:18:43.305;-0.22984336,-0.49799395,8.0445175,-1.7089844,0.79345703,0.061035156,10.304,-21.757998,6.8999996,243.72664,1000,1000,1000,1000,0.0,0.0,0.0,0.0,1013.13995,26.2,0.91686904,185.02258,2.267705,1.8502258,-4.7872276,1.6659124,0.2430176,-3.54092,1.6334519,-6.159485,3.1660767,0.48651123,0.37669373
20:18:43.319;-0.22984336,-0.49799395,8.0445175,-1.7089844,0.79345703,0.061035156,10.304,-21.757998,6.8999996,243.72664,1000,1000,1000,1000,0.0,0.0,0.0,0.0,1013.13995,26.2,0.91686904,185.02258,2.267705,1.8502258,-4.785749,1.6761494,0.24652852,-3.54092,1.6334519,-6.1834106,3.177185,0.48736572,0.37669373
20:18:43.340;-0.15322891,-0.4213795,8.0445175,-1.8310547,0.8544922,0.0,10.304,-21.757998,6.8999996,243.72664,1000,1000,1000,1000,0.0,0.0,0.0,0.0,1013.13995,26.2,0.91686904,279.2272,3.2097514,2.792272,-4.785881,1.6811689,0.25032812,-2.9979246,1.0897226,-6.2200317,3.194275,0.48858643,0.37669373
20:18:43.347;-0.15322891,-0.4213795,8.0445175,-1.8310547,0.8544922,0.0,10.304,-21.757998,6.8999996,243.72664,1000,1000,1000,1000,0.0,0.0,0.0,0.0,1013.13995,26.2,0.91686904,279.2272,3.2097514,2.792272,-4.762683,1.6752018,0.25285545,-2.9979246,1.0897226,-6.232849,3.2002563,0.48858643,0.37669373
20:18:43.361;-0.11492168,-0.4213795,8.00621,-1.8920898,1.0375977,0.061035156,10.58,-21.390001,6.9920006,244.12201,1000,1000,1000,1000,0.0,0.0,0.0,0.0,1013.13995,26.2,0.91686904,279.2272,3.2097514,2.792272,-4.755492,1.6733751,0.24742481,-3.0124779,0.8212345,-6.2612305,3.2158203,0.48858643,-0.018676758
20:18:43.383;-0.11492168,-0.4213795,8.00621,-1.8920898,1.0375977,0.061035156,10.58,-21.390001,6.9920006,244.12201,1000,1000,1000,1000,0.0,0.0,0.0,0.0,1013.13995,26.2,0.91686904,187.57986,2.293278,1.8757987,-4.759571,1.6776861,0.2433589,-3.0124779,0.8212345,-6.3009644,3.2376099,0.48986816,-0.018676758
20:18:43.389;-0.11492168,-0.4213795,8.00621,-1.8920898,1.0375977,0.061035156,10.58,-21.390001,6.9920006,244.12201,1000,1000,1000,1000,0.0,0.0,0.0,0.0,1013.16,26.2,0.7504058,187.57986,2.293278,1.8757987,-4.737609,1.667675,0.2385369,-3.0124779,0.8212345,-6.314209,3.244873,0.4902954,-0.018676758
20:18:43.403;-0.19153613,-0.5363012,8.0445175,-1.6479492,0.9765625,0.061035156,10.58,-21.390001,6.9920006,244.12201,1000,1000,1000,1000,0.0,0.0,0.0,0.0,1013.16,26.2,0.7504058,187.57986,2.293278,1.8757987,-4.741727,1.6749381,0.23423004,-3.8129976,1.3609078,-6.3372803,3.258545,0.4911499,-0.018676758
20:18:43.419;-0.15322891,-0.49799395,8.0445175,-1.7700195,1.0986328,0.30517578,10.488,-20.746,6.8999996,243.90767,1000,1000,1000,1000,0.0,0.0,0.0,0.0,1013.16,26.2,0.7504058,187.57986,2.293278,1.8757987,-4.7454805,1.6804485,0.23441574,-3.5417204,1.0891318,-6.3656006,3.276123,0.49212646,0.19566345
20:18:43.433;-0.15322891,-0.49799395,8.0445175,-1.7700195,1.0986328,0.30517578,10.488,-20.746,6.8999996,243.90767,1000,1000,1000,1000,0.0,0.0,0.0,0.0,1013.07,26.2,1.4981693,187.57986,2.293278,1.8757987,-4.74569,1.6836954,0.2378277,-3.5417204,1.0891318,-6.390381,3.291504,0.49639893,0.19566345
20:18:43.446;-0.076614454,-0.49799395,7.967903,-1.8310547,0.79345703,-0.18310547,10.488,-20.746,6.8999996,243.90767,1000,1000,1000,1000,0.0,0.0,0.0,0.0,1013.07,26.2,1.4981693,187.57986,2.293278,1.8757987,-4.745627,1.6711267,0.24087237,-3.5761695,0.5498312,-6.4141846,3.3018188,0.5003662,0.19566345
20:18:43.461;-0.076614454,-0.49799395,7.967903,-1.8310547,0.79345703,-0.18310547,10.488,-20.746,6.8999996,243.90767,1000,1000,1000,1000,0.0,0.0,0.0,0.0,1013.07,26.2,1.4981693,187.57986,2.293278,1.8757987,-4.749154,1.6603646,0.23727654,-3.5761695,0.5498312,-6.4416504,3.3137207,0.49761963,0.19566345
20:18:43.474;-0.11492168,-0.5363012,8.00621,-1.6479492,1.0375977,-0.12207031,10.488,-21.206,6.8999996,243.95706,1000,1000,1000,1000,0.0,0.0,0.0,0.0,1013.1,26.2,1.2497956,187.57986,2.293278,1.8757987,-4.7518034,1.6567869,0.23312366,-3.8318763,0.82053244,-6.4630737,3.3272095,0.49523926,0.14627075
20:18:43.488;-0.11492168,-0.5363012,8.00621,-1.6479492,1.0375977,-0.12207031,10.488,-21.206,6.8999996,243.95706,1000,1000,1000,1000,0.0,0.0,0.0,0.0,1013.1,26.2,1.2497956,9999999.0,1.2497956,9999999.0,-4.7560143,1.6542976,0.2297118,-3.8318763,0.82053244,-6.486145,3.3417358,0.49353027,0.14627075
20:18:43.503;-0.15322891,-0.5746084,8.0445175,-1.7700195,0.8544922,0.30517578,10.488,-21.206,6.8999996,243.95706,1000,1000,1000,1000,0.0,0.0,0.0,0.0,1013.1,26.2,1.2497956,9999999.0,1.2497956,9999999.0,-4.768611,1.6555415,0.22624855,-4.0848784,1.0884438,-6.5126953,3.3545532,0.49169922,0.14627075
20:18:43.516;-0.15322891,-0.5746084,8.0445175,-1.7700195,0.8544922,0.30517578,10.488,-21.206,6.8999996,243.95706,1000,1000,1000,1000,0.0,0.0,0.0,0.0,1013.13995,26.2,0.91686904,9999999.0,0.91686904,9999999.0,-4.7757516,1.6542484,0.22823785,-4.0848784,1.0884438,-6.5339355,3.3648071,0.49536133,0.14627075
20:18:43.530;-0.15322891,-0.49799395,8.0445175,-2.0141602,0.91552734,0.12207031,10.488,-21.206,6.8999996,243.95706,1000,1000,1000,1000,0.0,0.0,0.0,0.0,1013.13995,26.2,0.91686904,9999999.0,0.91686904,9999999.0,-4.7806787,1.6564043,0.2310846,-3.5417204,1.0891318,-6.564148,3.37854,0.49993896,0.14627075
20:18:43.544;-0.15322891,-0.49799395,8.0445175,-2.0141602,0.91552734,0.12207031,10.488,-21.206,6.8999996,243.95706,1000,1000,1000,1000,0.0,0.0,0.0,0.0,1013.13995,26.2,0.91686904,9999999.0,0.91686904,9999999.0,-4.7835336,1.6576198,0.23106313,-3.5417204,1.0891318,-6.592346,3.3913574,0.50164795,0.14627075
20:18:43.558;-0.038307227,-0.45968673,8.0445175,-1.7089844,0.9765625,-0.18310547,10.58,-21.113997,6.9920006,244.09393,1000,1000,1000,1000,0.0,0.0,0.0,0.0,1013.13995,26.2,0.91686904,9999999.0,0.91686904,9999999.0,-4.7767196,1.6433138,0.22830467,-3.270451,0.27239063,-6.616272,3.4050293,0.50335693,0.009399414
20:18:43.573;-0.038307227,-0.45968673,8.0445175,-1.7089844,0.9765625,-0.18310547,10.58,-21.113997,6.9920006,244.09393,1000,1000,1000,1000,0.0,0.0,0.0,0.0,1013.13995,26.2,0.91686904,9999999.0,0.91686904,9999999.0,-4.7717166,1.6302508,0.22123492,-3.270451,0.27239063,-6.6419067,3.4196777,0.50061035,0.009399414
20:18:43.587;-0.11492168,-0.4213795,8.0445175,-1.8310547,0.8544922,0.30517578,10.58,-21.113997,6.9920006,244.09393,1000,1000,1000,1000,0.0,0.0,0.0,0.0,1013.13995,26.2,0.91686904,9999999.0,0.91686904,9999999.0,-4.761368,1.6257162,0.214486,-2.9981618,0.8173351,-6.6675415,3.4316406,0.49804688,0.009399414
20:18:43.600;-0.11492168,-0.4213795,8.0445175,-1.8310547,0.8544922,0.30517578,10.58,-21.113997,6.9920006,244.09393,1000,1000,1000,1000,0.0,0.0,0.0,0.0,1013.13995,26.2,0.91686904,9999999.0,0.91686904,9999999.0,-4.7494316,1.6204349,0.21427222,-2.9981618,0.8173351,-6.691345,3.442749,0.50201416,0.009399414
20:18:43.614;-0.19153613,-0.5363012,8.00621,-1.7089844,0.79345703,0.061035156,10.672,-21.021997,6.9920006,244.23157,1000,1000,1000,1000,0.0,0.0,0.0,0.0,1013.1,26.2,1.2497956,187.51074,2.2925868,1.8751074,-4.7545137,1.6262602,0.2116091,-3.831177,1.3673878,-6.715271,3.4538574,0.5062866,-0.12823486
20:18:43.629;-0.19153613,-0.5363012,8.00621,-1.7089844,0.79345703,0.061035156,10.672,-21.021997,6.9920006,244.23157,1000,1000,1000,1000,0.0,0.0,0.0,0.0,1013.1,26.2,1.2497956,187.51074,2.2925868,1.8751074,-4.761169,1.6327465,0.20570944,-3.831177,1.3673878,-6.740906,3.4657593,0.50720215,-0.12823486
20:18:43.643;-0.15322891,-0.5363012,8.00621,-1.6479492,1.0375977,0.24414063,10.672,-21.021997,6.9920006,244.23157,1000,1000,1000,1000,0.0,0.0,0.0,0.0,1013.16,26.2,0.7504058,187.51074,2.2925868,1.8751074,-4.7651873,1.6362071,0.19986796,-3.8315704,1.0939851,-6.763977,3.4802856,0.50805664,-0.12823486
20:18:43.657;-0.15322891,-0.5363012,8.00621,-1.6479492,1.0375977,0.24414063,10.672,-21.021997,6.9920006,244.23157,1000,1000,1000,1000,0.0,0.0,0.0,0.0,1013.16,26.2,0.7504058,187.57986,2.293278,1.8757987,-4.769125,1.6395985,0.19665553,-3.8315704,1.0939851,-6.7870483,3.494812,0.5114746,-0.12823486
20:18:43.671;-0.11492168,-0.38307226,7.967903,-1.7700195,0.9765625,0.061035156,10.58,-21.113997,6.8999996,244.09393,1000,1000,1000,1000,0.0,0.0,0.0,0.0,1013.16,26.2,0.7504058,187.57986,2.293278,1.8757987,-4.753071,1.6367124,0.19626002,-2.7521994,0.82537097,-6.8118286,3.508484,0.5148926,0.009399414
20:18:43.685;-0.11492168,-0.38307226,7.967903,-1.7700195,0.9765625,0.061035156,10.58,-21.113997,6.8999996,244.09393,1000,1000,1000,1000,0.0,0.0,0.0,0.0,1013.07,26.2,1.4981693,187.57986,2.293278,1.8757987,-4.737338,1.6338841,0.19336022,-2.7521994,0.82537097,-6.836609,3.5221558,0.5157471,0.009399414
20:18:43.699;-0.076614454,-0.61291564,8.00621,-1.7089844,0.6713867,0.48828125,10.58,-21.113997,6.8999996,244.09393,1000,1000,1000,1000,0.0,0.0,0.0,0.0,1013.07,26.2,1.4981693,187.57986,2.293278,1.8757987,-4.753589,1.6213512,0.19051842,-4.3775415,0.54666877,-6.8605347,3.5315552,0.51660156,0.009399414
20:18:43.713;-0.076614454,-0.61291564,8.00621,-1.7089844,0.6713867,0.48828125,10.58,-21.113997,6.8999996,244.09393,1000,1000,1000,1000,0.0,0.0,0.0,0.0,1013.07,26.2,1.4981693,187.51074,2.2925868,1.8751074,-4.7695155,1.6090691,0.19359528,-4.3775415,0.54666877,-6.8844604,3.5409546,0.5234375,0.009399414
20:18:43.728;-0.19153613,-0.5363012,8.082825,-1.8310547,0.6713867,0.061035156,10.58,-21.113997,6.8999996,244.09393,1000,1000,1000,1000,0.0,0.0,0.0,0.0,1013.07,26.2,1.4981693,187.51074,2.2925868,1.8751074,-4.775147,1.6131889,0.19661058,-3.7949896,1.3544887,-6.910095,3.550354,0.53027344,0.009399414
20:18:43.742;-0.19153613,-0.5363012,8.082825,-1.8310547,0.6713867,0.061035156,10.58,-21.113997,6.8999996,244.09393,1000,1000,1000,1000,0.0,0.0,0.0,0.0,1013.13995,26.2,0.91686904,187.51074,2.2925868,1.8751074,-4.780666,1.6172262,0.19370377,-3.7949896,1.3544887,-6.93573,3.5597534,0.5311279,0.009399414
20:18:43.755;-0.11492168,-0.45968673,8.00621,-1.6479492,1.0375977,0.0,10.396,-21.021997,6.9920006,243.79047,1000,1000,1000,1000,0.0,0.0,0.0,0.0,1013.13995,26.2,0.91686904,187.51074,2.2925868,1.8751074,-4.773378,1.615538,0.19692443,-3.2857642,0.821019,-6.9588013,3.5742798,0.5319824,0.3128662
20:18:43.774;-0.11492168,-0.45968673,8.00621,-1.6479492,1.0375977,0.0,10.396,-21.021997,6.9920006,243.79047,1000,1000,1000,1000,0.0,0.0,0.0,0.0,1013.13995,26.2,0.91686904,9999999.0,0.91686904,9999999.0,-4.7726955,1.6179509,0.19924328,-3.2857642,0.821019,-6.9884644,3.5929565,0.5319824,0.3128662
20:18:43.785;-0.038307227,-0.61291564,8.0445175,-1.8310547,0.7324219,0.36621094,10.396,-21.021997,6.9920006,243.79047,1000,1000,1000,1000,0.0,0.0,0.0,0.0,1013.16,26.2,0.7504058,9999999.0,0.7504058,9999999.0,-4.7859135,1.5996462,0.20151573,-4.356926,0.27204654,-7.010437,3.6017456,0.5319824,0.3128662
20:18:43.799;-0.038307227,-0.61291564,8.0445175,-1.8310547,0.7324219,0.36621094,10.396,-21.021997,6.9920006,243.79047,1000,1000,1000,1000,0.0,0.0,0.0,0.0,1013.16,26.2,0.7504058,9999999.0,0.7504058,9999999.0,-4.802456,1.5831431,0.20876716,-4.356926,0.27204654,-7.036072,3.6119995,0.5371094,0.3128662
20:18:43.813;-0.076614454,-0.5363012,8.00621,-1.7700195,0.91552734,0.0,10.488,-20.929998,6.9920006,243.92758,1000,1000,1000,1000,0.0,0.0,0.0,0.0,1013.16,26.2,0.7504058,9999999.0,0.7504058,9999999.0,-4.8073335,1.5749822,0.21313123,-3.832095,0.54704237,-7.060852,3.624817,0.5422363,0.17575073
20:18:43.827;-0.076614454,-0.5363012,8.00621,-1.7700195,0.91552734,0.0,10.488,-20.929998,6.9920006,243.92758,1000,1000,1000,1000,0.0,0.0,0.0,0.0,1013.16,26.2,0.7504058,9999999.0,0.7504058,9999999.0,-4.810379,1.5660871,0.21238361,-3.832095,0.54704237,-7.0838623,3.6367188,0.5422363,0.17575073
20:18:43.841;-0.11492168,-0.5363012,7.967903,-1.8310547,1.0375977,0.18310547,10.488,-20.929998,6.9920006,243.92758,1000,1000,1000,1000,0.0,0.0,0.0,0.0,1013.16,26.2,0.7504058,9999999.0,0.7504058,9999999.0,-4.818093,1.5665072,0.21165095,-3.8502398,0.824459,-7.111328,3.6522827,0.5422363,0.17575073
20:18:43.855;-0.11492168,-0.5363012,7.967903,-1.8310547,1.0375977,0.18310547,10.488,-20.929998,6.9920006,243.92758,1000,1000,1000,1000,0.0,0.0,0.0,0.0,1013.16,26.2,0.7504058,9999999.0,0.7504058,9999999.0,-4.8220634,1.5659021,0.21344516,-3.8502398,0.824459,-7.135132,3.666809,0.5447998,0.17575073
20:18:43.869;-0.076614454,-0.4213795,8.0445175,-1.6479492,0.7324219,0.18310547,10.58,-20.929998,7.084,244.07498,1000,1000,1000,1000,0.0,0.0,0.0,0.0,1013.1,26.2,1.2497956,9999999.0,1.2497956,9999999.0,-4.8098135,1.5555311,0.21225548,-2.9983315,0.5449106,-7.159851,3.677063,0.5473633,0.02835083
20:18:43.883;-0.076614454,-0.4213795,8.0445175,-1.6479492,0.7324219,0.18310547,10.58,-20.929998,7.084,244.07498,1000,1000,1000,1000,0.0,0.0,0.0,0.0,1013.1,26.2,1.2497956,9999999.0,1.2497956,9999999.0,-4.7961936,1.5453676,0.2110896,-2.9983315,0.5449106,-7.1829224,3.687317,0.54992676,0.02835083
20:18:43.897;-0.15322891,-0.5746084,8.082825,-1.7700195,0.91552734,-0.12207031,10.58,-20.929998,7.084,244.07498,1000,1000,1000,1000,0.0,0.0,0.0,0.0,1013.1,26.2,1.2497956,9999999.0,1.2497956,9999999.0,-4.8058662,1.5486875,0.20994703,-4.065591,1.0833125,-7.2077026,3.7001343,0.55249023,0.02835083
20:18:43.912;-0.15322891,-0.5746084,8.082825,-1.7700195,0.91552734,-0.12207031,10.58,-20.929998,7.084,244.07498,1000,1000,1000,1000,0.0,0.0,0.0,0.0,1013.16,26.2,0.7504058,9999999.0,0.7504058,9999999.0,-4.81708,1.5528383,0.20452069,-4.065591,1.0833125,-7.234253,3.7138672,0.5506592,0.02835083
20:18:43.926;-0.11492168,-0.5746084,8.00621,-1.7089844,0.79345703,0.061035156,10.58,-20.929998,7.084,244.07498,1000,1000,1000,1000,0.0,0.0,0.0,0.0,1013.16,26.2,0.7504058,9999999.0,0.7504058,9999999.0,-4.826279,1.5490731,0.19932249,-4.104677,0.8202614,-7.2581787,3.7249756,0.5489502,0.02835083
20:18:43.941;-0.11492168,-0.5746084,8.00621,-1.7089844,0.79345703,0.061035156,10.58,-20.929998,7.084,244.07498,1000,1000,1000,1000,0.0,0.0,0.0,0.0,1013.16,26.2,0.7504058,9999999.0,0.7504058,9999999.0,-4.836969,1.5461607,0.19680028,-4.104677,0.8202614,-7.2838135,3.7368774,0.5498657,0.02835083
20:18:43.955;-0.076614454,-0.45968673,8.082825,-1.8310547,0.91552734,0.061035156,10.58,-21.206,6.9920006,244.10333,1000,1000,1000,1000,0.0,0.0,0.0,0.0,1013.27997,26.2,-0.24837375,9999999.0,-0.24837375,9999999.0,-4.830449,1.5386424,0.19370168,-3.2548757,0.5421956,-7.3094482,3.7496948,0.5507202,0.0
20:18:43.969;-0.076614454,-0.45968673,8.082825,-1.8310547,0.91552734,0.061035156,10.58,-21.206,6.9920006,244.10333,1000,1000,1000,1000,0.0,0.0,0.0,0.0,1013.27997,26.2,-0.24837375,9999999.0,-0.24837375,9999999.0,-4.8240595,1.5312744,0.19066505,-3.2548757,0.5421956,-7.335083,3.7625122,0.5515747,0.0
20:18:43.984;-0.15322891,-0.5746084,8.082825,-2.1972656,0.8544922,0.12207031,10.58,-21.206,6.9920006,244.10333,1000,1000,1000,1000,0.0,0.0,0.0,0.0,1013.27997,26.2,-0.24837375,9999999.0,-0.24837375,9999999.0,-4.84119,1.5348763,0.18774897,-4.065591,1.0833125,-7.368042,3.7753296,0.55249023,0.0
20:18:43.997;-0.15322891,-0.5746084,8.082825,-2.1972656,0.8544922,0.12207031,10.58,-21.206,6.9920006,244.10333,1000,1000,1000,1000,0.0,0.0,0.0,0.0,1013.22,26.2,0.25101602,9999999.0,0.25101602,9999999.0,-4.853671,1.5367312,0.18554917,-4.065591,1.0833125,-7.3966064,3.786438,0.55407715,0.0
20:18:44.011;-0.22984336,-0.38307226,8.082825,-1.8310547,0.9765625,-0.24414063,10.488,-21.113997,6.9920006,243.94727,1000,1000,1000,1000,0.0,0.0,0.0,0.0,1013.22,26.2,0.25101602,9999999.0,0.25101602,9999999.0,-4.835966,1.5519351,0.18663433,-2.7123146,1.6269997,-7.422241,3.8001099,0.55578613,0.1560669
20:18:44.025;-0.22984336,-0.38307226,8.082825,-1.8310547,0.9765625,-0.24414063,10.488,-21.113997,6.9920006,243.94727,1000,1000,1000,1000,0.0,0.0,0.0,0.0,1013.22,26.2,0.25101602,9999999.0,0.25101602,9999999.0,-4.8186154,1.5668348,0.18267336,-2.7123146,1.6269997,-7.447876,3.8137817,0.55236816,0.1560669
20:18:44.039;-0.15322891,-0.5363012,8.00621,-2.1362305,0.8544922,-0.30517578,10.488,-21.113997,6.9920006,243.94727,1000,1000,1000,1000,0.0,0.0,0.0,0.0,1013.22,26.2,0.25101602,9999999.0,0.25101602,9999999.0,-4.8281837,1.5691015,0.17879163,-3.8315704,1.0939851,-7.477783,3.8257446,0.5489502,0.1560669
20:18:44.053;-0.15322891,-0.5363012,8.00621,-2.1362305,0.8544922,-0.30517578,10.488,-21.113997,6.9920006,243.94727,1000,1000,1000,1000,0.0,0.0,0.0,0.0,1013.22,26.2,0.25101602,9999999.0,0.25101602,9999999.0,-4.8375607,1.5713228,0.17415012,-3.8315704,1.0939851,-7.5076904,3.8377075,0.54467773,0.1560669
20:18:44.067;-0.038307227,-0.5746084,8.121132,-1.953125,0.9765625,0.0,10.58,-21.113997,6.9920006,244.09393,1000,1000,1000,1000,0.0,0.0,0.0,0.0,1013.22,26.2,0.25101602,9999999.0,0.25101602,9999999.0,-4.8485494,1.5586865,0.1666681,-4.047157,0.26958716,-7.535034,3.8513794,0.5404053,0.009399414
20:18:44.081;-0.038307227,-0.5746084,8.121132,-1.953125,0.9765625,0.0,10.58,-21.113997,6.9920006,244.09393,1000,1000,1000,1000,0.0,0.0,0.0,0.0,1013.19995,26.2,0.41747928,9999999.0,0.41747928,9999999.0,-4.8593183,1.5463029,0.16352274,-4.047157,0.26958716,-7.562378,3.8650513,0.5404053,0.009399414
20:18:44.096;-0.11492168,-0.49799395,8.082825,-1.953125,1.0986328,-0.36621094,10.58,-21.113997,6.9920006,244.09393,1000,1000,1000,1000,0.0,0.0,0.0,0.0,1013.19995,26.2,0.41747928,9999999.0,0.41747928,9999999.0,-4.859434,1.5467108,0.16044028,-3.5252597,0.8130356,-7.5897217,3.8804321,0.5404053,0.009399414
20:18:44.109;-0.11492168,-0.49799395,8.082825,-1.953125,1.0986328,-0.36621094,10.58,-21.113997,6.9920006,244.09393,1000,1000,1000,1000,0.0,0.0,0.0,0.0,1013.19995,26.2,0.41747928,9999999.0,0.41747928,9999999.0,-4.8595476,1.5471107,0.15239505,-3.5252597,0.8130356,-7.6170654,3.895813,0.5352783,0.009399414
20:18:44.124;-0.15322891,-0.5746084,8.0445175,-1.953125,0.9765625,-0.24414063,10.58,-21.113997,6.9920006,244.09393,1000,1000,1000,1000,0.0,0.0,0.0,0.0,1013.19995,26.2,0.41747928,9999999.0,0.41747928,9999999.0,-4.870851,1.5513357,0.14451073,-4.0848784,1.0884438,-7.644409,3.9094849,0.53015137,0.009399414
20:18:44.138;-0.15322891,-0.5746084,8.0445175,-1.953125,0.9765625,-0.24414063,10.58,-21.113997,6.9920006,244.09393,1000,1000,1000,1000,0.0,0.0,0.0,0.0,1013.19995,26.2,0.41747928,9999999.0,0.41747928,9999999.0,-4.8838425,1.5564333,0.13821964,-4.0848784,1.0884438,-7.673706,3.9241333,0.52648926,0.009399414
20:18:44.152;-0.11492168,-0.49799395,7.967903,-1.8310547,1.0375977,-0.61035156,10.58,-21.113997,6.8999996,244.09393,1000,1000,1000,1000,0.0,0.0,0.0,0.0,1013.19995,26.2,0.41747928,9999999.0,0.41747928,9999999.0,-4.881013,1.555018,0.1325329,-3.5759635,0.8247152,-7.69751,3.937622,0.5233154,0.009399414
20:18:44.166;-0.11492168,-0.49799395,7.967903,-1.8310547,1.0375977,-0.61035156,10.58,-21.113997,6.8999996,244.09393,1000,1000,1000,1000,0.0,0.0,0.0,0.0,1013.1,26.2,1.2497956,9999999.0,1.2497956,9999999.0,-4.880034,1.5546477,0.121696204,-3.5759635,0.8247152,-7.7231445,3.9521484,0.5147705,0.009399414
20:18:44.180;-0.076614454,-0.5746084,8.00621,-1.5869141,0.8544922,-0.7324219,10.58,-21.113997,6.8999996,244.09393,1000,1000,1000,1000,0.0,0.0,0.0,0.0,1013.1,26.2,1.2497956,9999999.0,1.2497956,9999999.0,-4.887859,1.547053,0.1104781,-4.1049113,0.5468617,-7.7469482,3.9649658,0.50561523,0.009399414
20:18:44.194;-0.076614454,-0.5746084,8.00621,-1.5869141,0.8544922,-0.7324219,10.58,-21.113997,6.8999996,244.09393,1000,1000,1000,1000,0.0,0.0,0.0,0.0,1013.1,26.2,1.2497956,9999999.0,1.2497956,9999999.0,-4.8939724,1.5387728,0.0984077,-4.1049113,0.5468617,-7.769165,3.9769287,0.49536133,0.009399414
20:18:44.210;-0.22984336,-0.49799395,8.0445175,-1.6479492,0.79345703,-0.8544922,10.672,-21.113997,6.8999996,244.24065,1000,1000,1000,1000,0.0,0.0,0.0,0.0,1013.1,26.2,1.2497956,9999999.0,1.2497956,9999999.0,-4.892751,1.5531077,0.082208894,-3.54092,1.6334519,-7.795532,3.989624,0.48364258,-0.13731384
20:18:44.222;-0.22984336,-0.49799395,8.0445175,-1.6479492,0.79345703,-0.8544922,10.672,-21.113997,6.8999996,244.24065,1000,1000,1000,1000,0.0,0.0,0.0,0.0,1013.1,26.2,1.2497956,9999999.0,1.2497956,9999999.0,-4.8850946,1.5640457,0.06776961,-3.54092,1.6334519,-7.8153076,3.9991455,0.47338867,-0.13731384
20:18:44.237;0.0,-0.6895301,8.121132,-1.5869141,0.9765625,-1.4648438,10.672,-21.113997,6.8999996,244.24065,1000,1000,1000,1000,0.0,0.0,0.0,0.0,1013.1,26.2,1.2497956,9999999.0,1.2497956,9999999.0,-4.907782,1.5471202,0.05110691,-4.8530965,-0.0,-7.8391113,4.013794,0.4605713,-0.13731384
20:18:44.252;0.0,-0.6895301,8.121132,-1.5869141,0.9765625,-1.4648438,10.672,-21.113997,6.8999996,244.24065,1000,1000,1000,1000,0.0,0.0,0.0,0.0,1013.19995,26.2,0.41747928,9999999.0,0.41747928,9999999.0,-4.9300156,1.5305333,0.025805296,-4.8530965,-0.0,-7.862915,4.0284424,0.43859863,-0.13731384
20:18:44.267;-0.22984336,-0.4213795,8.00621,-1.4038086,0.61035156,-1.8310547,10.58,-21.021997,6.808,244.08447,1000,1000,1000,1000,0.0,0.0,0.0,0.0,1013.19995,26.2,0.41747928,9999999.0,0.41747928,9999999.0,-4.912282,1.5417374,0.0041331844,-3.0115492,1.6421317,-7.883972,4.0375977,0.41662598,0.018859863
20:18:44.283;-0.22984336,-0.4213795,8.00621,-1.4038086,0.61035156,-1.8310547,10.58,-21.021997,6.808,244.08447,1000,1000,1000,1000,0.0,0.0,0.0,0.0,1013.19995,26.2,0.41747928,9999999.0,0.41747928,9999999.0,-4.894903,1.5527176,-0.022488788,-3.0115492,1.6421317,-7.9050293,4.046753,0.38916016,0.018859863
20:18:44.296;-0.11492168,-0.38307226,8.082825,-1.7700195,0.79345703,-1.953125,10.58,-21.021997,6.808,244.08447,1000,1000,1000,1000,0.0,0.0,0.0,0.0,1013.1,26.2,1.2497956,9999999.0,1.2497956,9999999.0,-4.8755527,1.5488228,-0.046783887,-2.7131357,0.8136639,-7.9298096,4.0578613,0.3635254,0.018859863
20:18:44.321;-0.11492168,-0.38307226,8.082825,-1.7700195,0.79345703,-1.953125,10.58,-21.021997,6.808,244.08447,1000,1000,1000,1000,0.0,0.0,0.0,0.0,1013.1,26.2,1.2497956,9999999.0,1.2497956,9999999.0,-4.87567,1.5535593,-0.093322575,-2.7131357,0.8136639,-7.97406,4.0776978,0.31469727,0.018859863
20:18:44.325;0.0,-0.5746084,8.0445175,-1.7700195,1.0375977,-1.5258789,10.58,-21.021997,6.808,244.08447,1000,1000,1000,1000,0.0,0.0,0.0,0.0,1013.1,26.2,1.2497956,9999999.0,1.2497956,9999999.0,-4.8650727,1.5255387,-0.096821114,-4.0856166,-0.0,-7.97937,4.0808105,0.3088379,0.018859863
20:18:44.338;0.0,-0.5746084,8.0445175,-1.7700195,1.0375977,-1.5258789,10.58,-21.021997,6.808,244.08447,1000,1000,1000,1000,0.0,0.0,0.0,0.0,1013.07,26.2,1.4981693,9999999.0,1.4981693,9999999.0,-4.8737683,1.5092638,-0.11544255,-4.0856166,-0.0,-8.00415,4.095337,0.2874756,0.018859863
20:18:44.353;-0.22984336,-0.61291564,8.00621,-1.8920898,0.5493164,-1.5869141,10.672,-21.113997,6.8999996,244.24065,1000,1000,1000,1000,0.0,0.0,0.0,0.0,1013.07,26.2,1.4981693,9999999.0,1.4981693,9999999.0,-4.8916254,1.5199455,-0.13831039,-4.375945,1.6396084,-8.032532,4.1035767,0.2645874,-0.13731384
20:18:44.370;-0.22984336,-0.61291564,8.00621,-1.8920898,0.5493164,-1.5869141,10.672,-21.113997,6.8999996,244.24065,1000,1000,1000,1000,0.0,0.0,0.0,0.0,1013.07,26.2,1.4981693,9999999.0,1.4981693,9999999.0,-4.9128337,1.5314903,-0.16472845,-4.375945,1.6396084,-8.064697,4.112915,0.23760986,-0.13731384
20:18:44.380;-0.11492168,-0.4213795,8.121132,-1.7700195,0.61035156,-1.6479492,10.672,-21.113997,6.8999996,244.24065,1000,1000,1000,1000,0.0,0.0,0.0,0.0,1013.19995,26.2,0.41747928,9999999.0,0.41747928,9999999.0,-4.891322,1.5230349,-0.1797319,-2.969934,0.80964625,-8.082397,4.1190186,0.22174072,-0.13731384
20:18:44.395;-0.11492168,-0.4213795,8.121132,-1.7700195,0.61035156,-1.6479492,10.672,-21.113997,6.8999996,244.24065,1000,1000,1000,1000,0.0,0.0,0.0,0.0,1013.19995,26.2,0.41747928,9999999.0,0.41747928,9999999.0,-4.877179,1.5171412,-0.2014934,-2.969934,0.80964625,-8.107178,4.1275635,0.19866943,-0.13731384
20:18:44.408;-0.11492168,-0.49799395,8.00621,-2.0141602,1.0375977,-1.8920898,10.764,-21.021997,6.9920006,244.3787,1000,1000,1000,1000,0.0,0.0,0.0,0.0,1013.19995,26.2,0.41747928,9999999.0,0.41747928,9999999.0,-4.878448,1.51745,-0.2255806,-3.558901,0.8207849,-8.135376,4.14209,0.17559814,-0.2753601
20:18:44.423;-0.11492168,-0.49799395,8.00621,-2.0141602,1.0375977,-1.8920898,10.764,-21.021997,6.9920006,244.3787,1000,1000,1000,1000,0.0,0.0,0.0,0.0,1013.1,26.2,1.2497956,9999999.0,1.2497956,9999999.0,-4.881665,1.5187694,-0.2543899,-3.558901,0.8207849,-8.165588,4.157654,0.1472168,-0.2753601
20:18:44.437;-0.19153613,-0.5363012,8.082825,-1.6479492,0.79345703,-1.8310547,10.764,-21.021997,6.9920006,244.3787,1000,1000,1000,1000,0.0,0.0,0.0,0.0,1013.1,26.2,1.2497956,9999999.0,1.2497956,9999999.0,-4.8809266,1.5255923,-0.27891454,-3.7949896,1.3544887,-8.187012,4.1679688,0.12261963,-0.2753601
20:18:44.451;-0.19153613,-0.5363012,8.082825,-1.6479492,0.79345703,-1.8310547,10.764,-21.021997,6.9920006,244.3787,1000,1000,1000,1000,0.0,0.0,0.0,0.0,1013.1,26.2,1.2497956,9999999.0,1.2497956,9999999.0,-4.8834324,1.5338341,-0.30575997,-3.7949896,1.3544887,-8.211731,4.1798706,0.09515381,-0.2753601
20:18:44.465;-0.076614454,-0.49799395,8.236053,-2.0141602,0.8544922,-1.5258789,10.856,-21.021997,6.9920006,244.52588,1000,1000,1000,1000,0.0,0.0,0.0,0.0,1013.13995,26.2,0.91686904,9999999.0,0.91686904,9999999.0,-4.880625,1.5246836,-0.33142334,-3.460034,0.5319971,-8.237915,4.190979,0.0713501,-0.4225464
20:18:44.479;-0.076614454,-0.49799395,8.236053,-2.0141602,0.8544922,-1.5258789,10.856,-21.021997,6.9920006,244.52588,1000,1000,1000,1000,0.0,0.0,0.0,0.0,1013.13995,26.2,0.91686904,9999999.0,0.91686904,9999999.0,-4.879847,1.5165535,-0.35418087,-3.460034,0.5319971,-8.266113,4.202942,0.049987793,-0.4225464
20:18:44.493;-0.22984336,-0.45968673,7.967903,-2.1362305,1.159668,-2.8686523,10.856,-21.021997,6.9920006,244.52588,1000,1000,1000,1000,0.0,0.0,0.0,0.0,1013.13995,26.2,0.91686904,9999999.0,0.91686904,9999999.0,-4.879663,1.5362608,-0.3779786,-3.3004959,1.6495633,-8.298157,4.220337,0.02709961,-0.4225464
20:18:44.507;-0.22984336,-0.45968673,7.967903,-2.1362305,1.159668,-2.8686523,10.856,-21.021997,6.9920006,244.52588,1000,1000,1000,1000,0.0,0.0,0.0,0.0,1013.1,26.2,1.2497956,9999999.0,1.2497956,9999999.0,-4.877389,1.5544376,-0.41822785,-3.3004959,1.6495633,-8.328064,4.2365723,-0.013061523,-0.4225464
20:18:44.521;-0.5746084,-0.30645782,7.929596,-1.8310547,0.61035156,-4.8217773,10.856,-21.021997,6.9920006,244.52588,1000,1000,1000,1000,0.0,0.0,0.0,0.0,1013.1,26.2,1.2497956,9999999.0,1.2497956,9999999.0,-4.849112,1.6145537,-0.45767215,-2.2074459,4.1415424,-8.353699,4.245117,-0.053222656,-0.4225464
20:18:44.535;-0.5746084,-0.30645782,7.929596,-1.8310547,0.61035156,-4.8217773,10.856,-21.021997,6.9920006,244.52588,1000,1000,1000,1000,0.0,0.0,0.0,0.0,1013.1,26.2,1.2497956,9999999.0,1.2497956,9999999.0,-4.8214006,1.6734674,-0.5231244,-2.2074459,4.1415424,-8.3793335,4.253662,-0.12072754,-0.4225464
20:18:44.549;-0.15322891,-0.49799395,8.121132,-1.6479492,0.61035156,-6.164551,10.856,-20.746,6.8999996,244.50064,1000,1000,1000,1000,0.0,0.0,0.0,0.0,1013.25995,26.2,-0.084552765,9999999.0,-0.084552765,9999999.0,-4.8177505,1.66995,-0.58676285,-3.5084038,1.0788982,-8.402405,4.262207,-0.18823242,-0.39730835
20:18:44.563;-0.15322891,-0.49799395,8.121132,-1.6479492,0.61035156,-6.164551,10.856,-20.746,6.8999996,244.50064,1000,1000,1000,1000,0.0,0.0,0.0,0.0,1013.25995,26.2,-0.084552765,9999999.0,-0.084552765,9999999.0,-4.814173,1.6665031,-0.6675514,-3.5084038,1.0788982,-8.425476,4.270752,-0.27453613,-0.39730835
20:18:44.577;-0.038307227,-0.61291564,8.0445175,-1.7700195,0.91552734,-6.958008,10.856,-20.746,6.8999996,244.50064,1000,1000,1000,1000,0.0,0.0,0.0,0.0,1013.25995,26.2,-0.084552765,9999999.0,-0.084552765,9999999.0,-4.8293133,1.651175,-0.7467241,-4.356926,0.27204654,-8.450256,4.2835693,-0.36083984,-0.39730835
20:18:44.592;-0.038307227,-0.61291564,8.0445175,-1.7700195,0.91552734,-6.958008,10.856,-20.746,6.8999996,244.50064,1000,1000,1000,1000,0.0,0.0,0.0,0.0,1013.22,26.2,0.25101602,9999999.0,0.25101602,9999999.0,-4.8458853,1.6370507,-0.8420185,-4.356926,0.27204654,-8.476807,4.2973022,-0.46520996,-0.39730835
20:18:44.607;-0.2681506,-0.38307226,8.00621,-2.0141602,0.8544922,-7.019043,11.132,-20.653997,6.9920006,244.93849,1000,1000,1000,1000,0.0,0.0,0.0,0.0,1013.22,26.2,0.25101602,9999999.0,0.25101602,9999999.0,-4.833332,1.6551925,-0.94416404,-2.7378027,1.91609,-8.507019,4.3101196,-0.5695801,-0.8351593
20:18:44.621;-0.2681506,-0.38307226,8.00621,-2.0141602,0.8544922,-7.019043,11.132,-20.653997,6.9920006,244.93849,1000,1000,1000,1000,0.0,0.0,0.0,0.0,1013.22,26.2,0.25101602,9999999.0,0.25101602,9999999.0,-4.819056,1.672134,-1.0382851,-2.7378027,1.91609,-8.535217,4.3220825,-0.6678467,-0.8351593
20:18:44.635;-0.038307227,-0.61291564,8.082825,-2.1972656,1.159668,-7.019043,11.132,-20.653997,6.9920006,244.93849,1000,1000,1000,1000,0.0,0.0,0.0,0.0,1013.13995,26.2,0.91686904,9999999.0,0.91686904,9999999.0,-4.8395486,1.6600174,-1.1305238,-4.336356,0.27076462,-8.565979,4.338318,-0.7661133,-0.8351593
20:18:44.649;-0.038307227,-0.61291564,8.082825,-2.1972656,1.159668,-7.019043,11.132,-20.653997,6.9920006,244.93849,1000,1000,1000,1000,0.0,0.0,0.0,0.0,1013.13995,26.2,0.91686904,9999999.0,0.91686904,9999999.0,-4.8596315,1.648143,-1.2209177,-4.336356,0.27076462,-8.596741,4.354553,-0.8643799,-0.8351593
20:18:44.663;-0.11492168,-0.61291564,8.00621,-2.0751953,0.91552734,-6.8969727,11.408,-20.653997,6.8999996,245.3852,1000,1000,1000,1000,0.0,0.0,0.0,0.0,1013.13995,26.2,0.91686904,9999999.0,0.91686904,9999999.0,-4.8784566,1.6441406,-1.3184378,-4.3772917,0.81997204,-8.625793,4.3673706,-0.9626465,-1.2818604
20:18:44.677;-0.11492168,-0.61291564,8.00621,-2.0751953,0.91552734,-6.8969727,11.408,-20.653997,6.8999996,245.3852,1000,1000,1000,1000,0.0,0.0,0.0,0.0,1013.19995,26.2,0.41747928,9999999.0,0.41747928,9999999.0,-4.896905,1.6402183,-1.4123327,-4.3772917,0.81997204,-8.654846,4.380188,-1.0592041,-1.2818604
20:18:44.692;-0.15322891,-0.4213795,7.967903,-1.5258789,0.4272461,-7.446289,11.408,-20.653997,6.8999996,245.3852,1000,1000,1000,1000,0.0,0.0,0.0,0.0,1013.19995,26.2,0.41747928,9999999.0,0.41747928,9999999.0,-4.8804355,1.6352792,-1.5043496,-3.0266867,1.1001691,-8.6762085,4.3861694,-1.1557617,-1.2818604
20:18:44.705;-0.15322891,-0.4213795,7.967903,-1.5258789,0.4272461,-7.446289,11.408,-20.653997,6.8999996,245.3852,1000,1000,1000,1000,0.0,0.0,0.0,0.0,1013.19995,26.2,0.41747928,9999999.0,0.41747928,9999999.0,-4.8642955,1.6304388,-1.6020628,-3.0266867,1.1001691,-8.697571,4.392151,-1.2600098,-1.2818604
20:18:44.719;0.038307227,-0.7278373,7.929596,-1.953125,0.91552734,-7.9345703,11.408,-20.653997,6.8999996,245.3852,1000,1000,1000,1000,0.0,0.0,0.0,0.0,1013.25995,26.2,-0.084552765,9999999.0,-0.084552765,9999999.0,-4.898692,1.6048785,-1.6978219,-5.2442775,-0.2756304,-8.724915,4.4049683,-1.3642578,-1.2818604
20:18:44.734;0.038307227,-0.7278373,7.929596,-1.953125,0.91552734,-7.9345703,11.408,-20.653997,6.8999996,245.3852,1000,1000,1000,1000,0.0,0.0,0.0,0.0,1013.25995,26.2,-0.084552765,9999999.0,-0.084552765,9999999.0,-4.9324007,1.5798295,-1.7983649,-5.2442775,-0.2756304,-8.752258,4.4177856,-1.4753418,-1.2818604
20:18:44.748;0.038307227,-0.5746084,8.00621,-2.0751953,0.61035156,-7.6904297,11.5,-20.653997,6.8999996,245.53415,1000,1000,1000,1000,0.0,0.0,0.0,0.0,1013.25995,26.2,-0.084552765,9999999.0,-0.084552765,9999999.0,-4.9443254,1.5511382,-1.8998762,-4.1050515,-0.27343708,-8.781311,4.4263306,-1.5864258,-1.4308167
20:18:44.761;0.038307227,-0.5746084,8.00621,-2.0751953,0.61035156,-7.6904297,11.5,-20.653997,6.8999996,245.53415,1000,1000,1000,1000,0.0,0.0,0.0,0.0,1013.19995,26.2,0.41747928,9999999.0,0.41747928,9999999.0,-4.956012,1.5230207,-1.9960077,-4.1050515,-0.27343708,-8.810364,4.4348755,-1.6940918,-1.4308167
20:18:44.776;0.038307227,-0.5746084,8.0445175,-1.5869141,0.61035156,-8.361816,11.5,-20.653997,6.8999996,245.53415,1000,1000,1000,1000,0.0,0.0,0.0,0.0,1013.19995,26.2,0.41747928,9999999.0,0.41747928,9999999.0,-4.9603753,1.4954915,-2.0902164,-4.0855703,-0.27214164,-8.832581,4.4434204,-1.8017578,-1.4308167
20:18:44.790;0.038307227,-0.5746084,8.0445175,-1.5869141,0.61035156,-8.361816,11.5,-20.653997,6.8999996,245.53415,1000,1000,1000,1000,0.0,0.0,0.0,0.0,1013.19995,26.2,0.41747928,9999999.0,0.41747928,9999999.0,-4.9646516,1.4685129,-2.1917524,-4.0855703,-0.27214164,-8.854797,4.4519653,-1.9188232,-1.4308167
20:18:44.804;-0.11492168,-0.38307226,8.00621,-1.3427734,1.0986328,-11.108398,11.776,-20.378,6.8999996,245.96713,1000,1000,1000,1000,0.0,0.0,0.0,0.0,1013.22,26.2,0.25101602,9999999.0,0.25101602,9999999.0,-4.9385624,1.4706445,-2.2999177,-2.739054,0.8214314,-8.873596,4.467346,-2.0358887,-1.8638
20:18:44.819;-0.11492168,-0.38307226,8.00621,-1.3427734,1.0986328,-11.108398,11.776,-20.378,6.8999996,245.96713,1000,1000,1000,1000,0.0,0.0,0.0,0.0,1013.22,26.2,0.25101602,9999999.0,0.25101602,9999999.0,-4.915627,1.4748868,-2.4653752,-2.739054,0.8214314,-8.895081,4.4849243,-2.213623,-1.8638
20:18:44.833;-0.2681506,-0.45968673,7.967903,-2.2583008,1.0986328,-12.268066,11.776,-20.378,6.8999996,245.96713,1000,1000,1000,1000,0.0,0.0,0.0,0.0,1013.22,26.2,0.25101602,9999999.0,0.25101602,9999999.0,-4.9142985,1.4989482,-2.605751,-3.3000016,1.9242986,-8.926697,4.500305,-2.3691406,-1.8638
20:18:44.846;-0.2681506,-0.45968673,7.967903,-2.2583008,1.0986328,-12.268066,11.776,-20.378,6.8999996,245.96713,1000,1000,1000,1000,0.0,0.0,0.0,0.0,1013.16,26.2,0.7504058,9999999.0,0.7504058,9999999.0,-4.9085703,1.5203751,-2.7351847,-3.3000016,1.9242986,-8.953796,4.513489,-2.5163574,-1.8638
20:18:44.860;-0.30645782,-0.22984336,8.082825,-2.319336,0.61035156,-14.770508,12.144,-20.194002,6.9920006,246.56189,1000,1000,1000,1000,0.0,0.0,0.0,0.0,1013.16,26.2,0.7504058,9999999.0,0.7504058,9999999.0,-4.8770466,1.5423485,-2.909993,-1.6276561,2.1704354,-8.988586,4.522644,-2.7003784,-2.4585571
20:18:44.875;-0.30645782,-0.22984336,8.082825,-2.319336,0.61035156,-14.770508,12.144,-20.194002,6.9920006,246.56189,1000,1000,1000,1000,0.0,0.0,0.0,0.0,1013.16,26.2,0.7504058,9999999.0,0.7504058,9999999.0,-4.8461533,1.5638824,-3.1180909,-1.6276561,2.1704354,-9.023376,4.5317993,-2.921936,-2.4585571
20:18:44.889;-0.30645782,-0.22984336,8.00621,-2.8076172,0.18310547,-16.540527,12.144,-20.194002,6.9920006,246.56189,1000,1000,1000,1000,0.0,0.0,0.0,0.0,1013.19995,26.2,0.41747928,9999999.0,0.41747928,9999999.0,-4.820615,1.5789403,-3.3075516,-1.6432006,2.1911678,-9.062683,4.534363,-3.1287231,-2.4585571
20:18:44.903;-0.30645782,-0.22984336,8.00621,-2.8076172,0.18310547,-16.540527,12.144,-20.194002,6.9920006,246.56189,1000,1000,1000,1000,0.0,0.0,0.0,0.0,1013.19995,26.2,0.41747928,9999999.0,0.41747928,9999999.0,-4.795587,1.5936971,-3.5175078,-1.6432006,2.1911678,-9.10199,4.5369263,-3.3602905,-2.4585571
20:18:44.918;-0.076614454,-0.80445176,8.00621,-2.4414063,0.061035156,-16.906738,12.144,-20.194002,6.9920006,246.56189,1000,1000,1000,1000,0.0,0.0,0.0,0.0,1013.19995,26.2,0.41747928,9999999.0,0.41747928,9999999.0,-4.8503137,1.5736308,-3.7394748,-5.737474,0.54552156,-9.138611,4.537842,-3.6083984,-2.4585571
20:18:44.934;-0.076614454,-0.80445176,8.00621,-2.4414063,0.061035156,-16.906738,12.144,-20.194002,6.9920006,246.56189,1000,1000,1000,1000,0.0,0.0,0.0,0.0,1013.19995,26.2,0.41747928,9999999.0,0.41747928,9999999.0,-4.906338,1.5540257,-3.9789543,-5.737474,0.54552156,-9.177673,4.5388184,-3.8789063,-2.4585571
20:18:44.946;-0.2681506,-0.61291564,7.929596,-2.2583008,0.61035156,-16.296387,12.696,-19.917997,6.8999996,247.46637,1000,1000,1000,1000,0.0,0.0,0.0,0.0,1013.19995,26.2,0.41747928,9999999.0,0.41747928,9999999.0,-4.923116,1.5687437,-4.165459,-4.417356,1.9310449,-9.204773,4.5461426,-4.081787,-3.363037
20:18:44.961;-0.2681506,-0.61291564,7.929596,-2.2583008,0.61035156,-16.296387,12.696,-19.917997,6.8999996,247.46637,1000,1000,1000,1000,0.0,0.0,0.0,0.0,1013.19995,26.2,0.41747928,9999999.0,0.41747928,9999999.0,-4.946198,1.5849619,-4.3889675,-4.417356,1.9310449,-9.238647,4.555298,-4.326233,-3.363037
20:18:44.975;-0.2681506,-0.842759,7.73806,-1.8920898,0.8544922,-17.578125,12.696,-19.917997,6.8999996,247.46637,1000,1000,1000,1000,0.0,0.0,0.0,0.0,1013.19995,26.2,0.41747928,9999999.0,0.41747928,9999999.0,-4.9974723,1.6044472,-4.5920353,-6.2119365,1.9730452,-9.265137,4.5672607,-4.5543823,-3.363037
20:18:44.988;-0.2681506,-0.842759,7.73806,-1.8920898,0.8544922,-17.578125,12.696,-19.917997,6.8999996,247.46637,1000,1000,1000,1000,0.0,0.0,0.0,0.0,1013.19995,26.2,0.41747928,9999999.0,0.41747928,9999999.0,-5.0458665,1.6227055,-4.791401,-6.2119365,1.9730452,-9.289734,4.578369,-4.782898,-3.363037
20:18:45.003;-0.30645782,-0.61291564,8.082825,-2.0141602,0.6713867,-18.066406,13.064,-19.642,6.8999996,248.07834,1000,1000,1000,1000,0.0,0.0,0.0,0.0,1013.19995,26.2,0.41747928,187.51074,2.2925868,1.8751074,-5.0612235,1.6434228,-5.0334716,-4.3333035,2.165102,-9.319946,4.58844,-5.04657,-3.975006
20:18:45.016;-0.30645782,-0.61291564,8.082825,-2.0141602,0.6713867,-18.066406,13.064,-19.642,6.8999996,248.07834,1000,1000,1000,1000,0.0,0.0,0.0,0.0,1013.13995,26.2,0.91686904,187.51074,2.2925868,1.8751074,-5.0723257,1.6624098,-5.2424684,-4.3333035,2.165102,-9.34613,4.597168,-5.281433,-3.975006
20:18:45.030;-0.038307227,-0.4213795,8.121132,-2.2583008,0.18310547,-19.53125,13.064,-19.642,6.8999996,248.07834,1000,1000,1000,1000,0.0,0.0,0.0,0.0,1013.13995,26.2,0.91686904,187.51074,2.2925868,1.8751074,-5.061267,1.6370717,-5.4649906,-2.9701977,0.26989806,-9.377747,4.5997314,-5.534363,-3.975006
20:18:45.046;-0.038307227,-0.4213795,8.121132,-2.2583008,0.18310547,-19.53125,13.064,-19.642,6.8999996,248.07834,1000,1000,1000,1000,0.0,0.0,0.0,0.0,1013.13995,26.2,0.91686904,187.51074,2.2925868,1.8751074,-5.054856,1.6125994,-5.7414412,-2.9701977,0.26989806,-9.413879,4.602661,-5.846863,-3.975006
20:18:45.059;-0.30645782,-0.61291564,8.00621,-2.4414063,0.48828125,-20.263672,13.708,-19.366,6.8999996,249.16454,1000,1000,1000,1000,0.0,0.0,0.0,0.0,1013.1,26.2,1.2497956,187.51074,2.2925868,1.8751074,-5.0723534,1.6302817,-5.9766645,-4.37455,2.1856806,-9.445618,4.609009,-6.100769,-5.061203
20:18:45.073;-0.30645782,-0.61291564,8.00621,-2.4414063,0.48828125,-20.263672,13.708,-19.366,6.8999996,249.16454,1000,1000,1000,1000,0.0,0.0,0.0,0.0,1013.1,26.2,1.2497956,187.51074,2.2925868,1.8751074,-5.0918937,1.6480889,-6.236373,-4.37455,2.1856806,-9.479797,4.6158447,-6.3844604,-5.061203
20:18:45.087;-0.11492168,-0.45968673,8.0445175,-2.0751953,0.8544922,-21.42334,13.708,-19.366,6.8999996,249.16454,1000,1000,1000,1000,0.0,0.0,0.0,0.0,1013.1,26.2,1.2497956,187.51074,2.2925868,1.8751074,-5.0839305,1.6431932,-6.490887,-3.270155,0.8171227,-9.50885,4.6278076,-6.668152,-5.061203
20:18:45.101;-0.11492168,-0.45968673,8.0445175,-2.0751953,0.8544922,-21.42334,13.708,-19.366,6.8999996,249.16454,1000,1000,1000,1000,0.0,0.0,0.0,0.0,1013.22,26.2,0.25101602,187.51074,2.2925868,1.8751074,-5.0761266,1.6383954,-6.756222,-3.270155,0.8171227,-9.537903,4.6397705,-6.9680786,-5.061203
20:18:45.115;-0.2681506,-0.61291564,7.8912888,-1.4648438,0.36621094,-21.850586,13.708,-19.366,6.8999996,249.16454,1000,1000,1000,1000,0.0,0.0,0.0,0.0,1013.22,26.2,0.25101602,187.51074,2.2925868,1.8751074,-5.0834756,1.649459,-7.0162497,-4.4386897,1.9403558,-9.558411,4.6448975,-7.2680054,-5.061203
20:18:45.129;-0.2681506,-0.61291564,7.8912888,-1.4648438,0.36621094,-21.850586,13.708,-19.366,6.8999996,249.16454,1000,1000,1000,1000,0.0,0.0,0.0,0.0,1013.22,26.2,0.25101602,187.51074,2.2925868,1.8751074,-5.0906777,1.6603013,-7.276939,-4.4386897,1.9403558,-9.578918,4.6500244,-7.5739136,-5.061203
20:18:45.143;-0.15322891,-0.30645782,7.967903,-2.319336,0.61035156,-22.705078,14.26,-18.906,6.8999996,250.12442,1000,1000,1000,1000,0.0,0.0,0.0,0.0,1013.22,26.2,0.25101602,187.51074,2.2925868,1.8751074,-5.0647297,1.6574872,-7.551612,-2.2021914,1.1008923,-9.611389,4.6585693,-7.879822,-6.0210876
20:18:45.157;-0.15322891,-0.30645782,7.967903,-2.319336,0.61035156,-22.705078,14.26,-18.906,6.8999996,250.12442,1000,1000,1000,1000,0.0,0.0,0.0,0.0,1013.19995,26.2,0.41747928,187.51074,2.2925868,1.8751074,-5.0393004,1.6547292,-7.832515,-2.2021914,1.1008923,-9.64386,4.6671143,-8.197693,-6.0210876
20:18:45.172;-0.2681506,-0.45968673,7.929596,-2.380371,0.48828125,-23.376465,14.26,-18.906,6.8999996,250.12442,1000,1000,1000,1000,0.0,0.0,0.0,0.0,1013.19995,26.2,0.41747928,187.51074,2.2925868,1.8751074,-5.037491,1.6670051,-8.1078,-3.31589,1.9335567,-9.677185,4.67395,-8.515564,-6.0210876
20:18:45.190;-0.2681506,-0.45968673,7.929596,-2.380371,0.48828125,-23.376465,14.26,-18.906,6.8999996,250.12442,1000,1000,1000,1000,0.0,0.0,0.0,0.0,1013.19995,26.2,0.41747928,9999999.0,0.41747928,9999999.0,-5.0473814,1.681428,-8.501335,-3.31589,1.9335567,-9.722412,4.6832275,-8.959717,-6.0210876
20:18:45.204;-0.19153613,-0.45968673,8.0445175,-2.4414063,0.36621094,-24.169922,14.812,-18.445997,6.8999996,251.10959,1000,1000,1000,1000,0.0,0.0,0.0,0.0,1013.1,26.2,1.2497956,9999999.0,1.2497956,9999999.0,-5.045321,1.6800579,-8.792159,-3.2695634,1.361707,-9.756592,4.6883545,-9.286987,-7.006256
20:18:45.220;-0.19153613,-0.45968673,8.0445175,-2.4414063,0.36621094,-24.169922,14.812,-18.445997,6.8999996,251.10959,1000,1000,1000,1000,0.0,0.0,0.0,0.0,1013.1,26.2,1.2497956,187.51074,2.2925868,1.8751074,-5.0456944,1.6790742,-9.111739,-3.2695634,1.361707,-9.793213,4.6938477,-9.649536,-7.006256
20:18:45.234;-0.19153613,-0.45968673,8.0445175,-2.4414063,0.36621094,-24.169922,14.812,-18.445997,6.8999996,251.10959,1000,1000,1000,1000,0.0,0.0,0.0,0.0,1013.1,26.2,1.2497956,187.51074,2.2925868,1.8751074,-5.043668,1.6777512,-9.401241,-3.2695634,1.361707,-9.827393,4.6989746,-9.987915,-7.006256
20:18:45.247;-0.15322891,-0.49799395,8.082825,-2.8076172,0.30517578,-25.08545,14.812,-18.445997,6.8999996,251.10959,1000,1000,1000,1000,0.0,0.0,0.0,0.0,1013.16,26.2,0.7504058,187.57986,2.293278,1.8757987,-5.0518146,1.670063,-9.684954,-3.5249834,1.0839909,-9.866699,4.703247,-10.326294,-7.006256
20:18:45.263;-0.22984336,-0.38307226,8.121132,-2.8686523,0.61035156,-26.245117,15.548,-17.894,6.8999996,252.45439,1000,1000,1000,1000,0.0,0.0,0.0,0.0,1013.16,26.2,0.7504058,187.57986,2.293278,1.8757987,-5.0469384,1.6780208,-10.027032,-2.69955,1.6193464,-9.909729,4.7124023,-10.702576,-8.351059
20:18:45.275;-0.22984336,-0.38307226,8.121132,-2.8686523,0.61035156,-26.245117,15.548,-17.894,6.8999996,252.45439,1000,1000,1000,1000,0.0,0.0,0.0,0.0,1013.16,26.2,0.7504058,187.57986,2.293278,1.8757987,-5.036537,1.6846232,-10.327875,-2.69955,1.6193464,-9.9470215,4.720337,-11.043762,-8.351059
20:18:45.289;-0.11492168,-0.6895301,8.0445175,-2.8076172,0.18310547,-26.855469,15.548,-17.894,6.8999996,252.45439,1000,1000,1000,1000,0.0,0.0,0.0,0.0,1013.25995,26.2,-0.084552765,187.57986,2.293278,1.8757987,-5.072299,1.6697522,-10.648421,-4.898595,0.8154658,-9.986328,4.7229004,-11.411194,-8.351059
20:18:45.304;-0.11492168,-0.6895301,8.0445175,-2.8076172,0.18310547,-26.855469,15.548,-17.894,6.8999996,252.45439,1000,1000,1000,1000,0.0,0.0,0.0,0.0,1013.25995,26.2,-0.084552765,187.57986,2.293278,1.8757987,-5.110097,1.6553582,-10.99725,-4.898595,0.8154658,-10.028442,4.725647,-11.814026,-8.351059
20:18:45.317;0.038307227,-0.5746084,8.082825,-3.1738281,-0.4272461,-26.123047,15.548,-17.894,6.8999996,252.45439,1000,1000,1000,1000,0.0,0.0,0.0,0.0,1013.25995,26.2,-0.084552765,187.51074,2.2925868,1.8751074,-5.1296554,1.6113908,-11.286465,-4.066273,-0.2708584,-10.069702,4.720093,-12.163147,-8.351059
20:18:45.331;0.038307227,-0.5746084,8.082825,-3.1738281,-0.4272461,-26.123047,15.548,-17.894,6.8999996,252.45439,1000,1000,1000,1000,0.0,0.0,0.0,0.0,1013.16,26.2,0.7504058,187.51074,2.2925868,1.8751074,-5.1519327,1.5678841,-11.586164,-4.066273,-0.2708584,-10.114136,4.7141113,-12.52887,-8.351059
20:18:45.345;0.19153613,-0.7278373,8.274361,-4.1503906,0.61035156,-25.512695,16.192,-17.434,6.8999996,253.66046,1000,1000,1000,1000,0.0,0.0,0.0,0.0,1013.16,26.2,0.7504058,187.51074,2.2925868,1.8751074,-5.20635,1.5184814,-11.903992,-5.0256286,-1.3209556,-10.172241,4.7226563,-12.894592,-9.557129
20:18:45.359;0.19153613,-0.7278373,8.274361,-4.1503906,0.61035156,-25.512695,16.192,-17.434,6.8999996,253.66046,1000,1000,1000,1000,0.0,0.0,0.0,0.0,1013.16,26.2,0.7504058,187.51074,2.2925868,1.8751074,-5.259679,1.4700668,-12.207088,-5.0256286,-1.3209556,-10.230347,4.731201,-13.25177,-9.557129
20:18:45.373;-0.038307227,-0.8810662,8.0445175,-2.5634766,0.61035156,-25.756836,16.192,-17.434,6.8999996,253.66046,1000,1000,1000,1000,0.0,0.0,0.0,0.0,1013.16,26.2,0.7504058,9999999.0,0.7504058,9999999.0,-5.3146615,1.4544637,-12.504123,-6.2502694,0.2712132,-10.266235,4.739746,-13.608948,-9.557129
20:18:45.388;-0.038307227,-0.8810662,8.0445175,-2.5634766,0.61035156,-25.756836,16.192,-17.434,6.8999996,253.66046,1000,1000,1000,1000,0.0,0.0,0.0,0.0,1013.16,26.2,0.7504058,9999999.0,0.7504058,9999999.0,-5.3685446,1.4391727,-12.798567,-6.2502694,0.2712132,-10.302124,4.748291,-13.969543,-9.557129
20:18:45.401;0.076614454,-0.7278373,8.0445175,-2.1362305,0.61035156,-26.794434,16.836,-16.789999,6.716,254.93738,1000,1000,1000,1000,0.0,0.0,0.0,0.0,1013.16,26.2,0.7504058,9999999.0,0.7504058,9999999.0,-5.3938746,1.4078946,-13.11266,-5.169595,-0.543438,-10.332031,4.756836,-14.330139,-10.834045
20:18:45.415;0.076614454,-0.7278373,8.0445175,-2.1362305,0.61035156,-26.794434,16.836,-16.789999,6.716,254.93738,1000,1000,1000,1000,0.0,0.0,0.0,0.0,1013.22,26.2,0.25101602,9999999.0,0.25101602,9999999.0,-5.418698,1.377242,-13.434708,-5.169595,-0.543438,-10.361938,4.765381,-14.705261,-10.834045
20:18:45.430;-0.076614454,-0.5363012,7.8529816,-1.4038086,1.2817383,-26.000977,16.836,-16.789999,6.716,254.93738,1000,1000,1000,1000,0.0,0.0,0.0,0.0,1013.22,26.2,0.25101602,9999999.0,0.25101602,9999999.0,-5.4077168,1.378436,-13.750314,-3.9066312,0.5576666,-10.381592,4.783325,-15.080383,-10.834045
20:18:45.444;-0.076614454,-0.5363012,7.8529816,-1.4038086,1.2817383,-26.000977,16.836,-16.789999,6.716,254.93738,1000,1000,1000,1000,0.0,0.0,0.0,0.0,1013.22,26.2,0.25101602,9999999.0,0.25101602,9999999.0,-5.3969555,1.379606,-14.048721,-3.9066312,0.5576666,-10.401245,4.8012695,-15.444397,-10.834045
20:18:45.458;-0.076614454,-0.38307226,7.6614456,0.5493164,1.2207031,-25.146484,17.572,-16.145998,6.808,256.4273,1000,1000,1000,1000,0.0,0.0,0.0,0.0,1013.13995,26.2,0.91686904,187.51074,2.2925868,1.8751074,-5.338725,1.3802065,-14.370959,-2.8622622,0.5722239,-10.393555,4.8183594,-15.808411,-12.323975
20:18:45.472;-0.076614454,-0.38307226,7.6614456,0.5493164,1.2207031,-25.146484,17.572,-16.145998,6.808,256.4273,1000,1000,1000,1000,0.0,0.0,0.0,0.0,1013.13995,26.2,0.91686904,187.51074,2.2925868,1.8751074,-5.281121,1.3819911,-14.699673,-2.8622622,0.5722239,-10.385315,4.83667,-16.185608,-12.323975
20:18:45.486;-0.34476504,-0.6895301,7.8912888,0.5493164,1.0986328,-25.390625,17.572,-16.145998,6.808,256.4273,1000,1000,1000,1000,0.0,0.0,0.0,0.0,1013.13995,26.2,0.91686904,187.51074,2.2925868,1.8751074,-5.267742,1.4192673,-14.997169,-4.989009,2.492139,-10.3776245,4.852051,-16.537659,-12.323975
20:18:45.500;-0.34476504,-0.6895301,7.8912888,0.5493164,1.0986328,-25.390625,17.572,-16.145998,6.808,256.4273,1000,1000,1000,1000,0.0,0.0,0.0,0.0,1013.16,26.2,0.7504058,187.51074,2.2925868,1.8751074,-5.254631,1.4557979,-15.292064,-4.989009,2.492139,-10.369934,4.8674316,-16.893127,-12.323975
20:18:45.516;-0.5363012,-0.22984336,8.734048,-2.0141602,0.5493164,-24.047852,17.572,-16.145998,6.808,256.4273,1000,1000,1000,1000,0.0,0.0,0.0,0.0,1013.16,26.2,0.7504058,187.51074,2.2925868,1.8751074,-5.2112126,1.5055459,-15.630827,-1.5046033,3.5125372,-10.402161,4.8762207,-17.299377,-12.323975
20:18:45.528;-0.5363012,-0.22984336,8.734048,-2.0141602,0.5493164,-24.047852,17.572,-16.145998,6.808,256.4273,1000,1000,1000,1000,0.0,0.0,0.0,0.0,1013.16,26.2,0.7504058,187.51074,2.2925868,1.8751074,-5.160767,1.5521456,-15.847492,-1.5046033,3.5125372,-10.426331,4.8828125,-17.587952,-12.323975
20:18:45.543;-0.5363012,-0.038307227,8.082825,-2.6245117,0.91552734,-24.597168,18.032,-15.594,6.808,257.43103,1000,1000,1000,1000,0.0,0.0,0.0,0.0,1013.25995,26.2,-0.084552765,187.51074,2.2925868,1.8751074,-5.101551,1.610481,-16.1506,-0.2709462,3.7960093,-10.465698,4.8965454,-17.94867,-13.327698
