18:36:57.845;[m/s²] X,[m/s²] Y,[m/s²] Z,[°/s] X,[°/s] Y,[°/s] Z,[µT] X,[µT] Y,[µT] Z,[µT] Direção,[RPM] 1,[RPM] 2,[RPM] 3,[RPM] 4,[hPa],[°C],[m] Baro ,[cm] Down,[m] Abs,[m] Rel,[°] X,[°] Y,[°] Z,[°] Acce X,[°] Acce Y,[°] Gyro X,[°] Gyro Y,[°] Gyro Z,[°] Mag Z
18:36:57.847;0.038307227,-0.038307227,8.0445175,0.19135356,-0.41404927,-0.24661505,-18.768002,-37.260002,9.016001,221.03053,0.0,0.0,0.0,0.0,1007.89996,29.5,44.635933,0.0,44.635933,0.0,-0.0054566325,-0.010804133,0.0,-0.2728319,-0.2728319,0.0,0.0,0.0,0.0
18:36:57.859;0.038307227,-0.053630117,8.052179,0.37445903,-0.16990864,0.05856073,-18.786402,-37.2784,9.016001,221.01933,0.0,0.0,0.0,0.0,1007.98,29.5,43.967438,9999999.0,43.967438,9999999.0,-0.011981524,-0.020023953,-0.0038846084,-0.38159844,-0.27256933,0.006365804,-0.0028884471,-0.004192456,0.011199951
18:36:57.883;0.045968674,-0.05056554,8.065969,0.43549418,-0.16990864,-0.06350958,-18.80112,-37.29312,9.016001,221.01039,0.0,0.0,0.0,0.0,1007.8,29.5,45.473534,9999999.0,45.473534,9999999.0,-0.01699096,-0.02701135,-0.0020841255,-0.35917655,-0.32652378,0.016382169,-0.006796346,-0.0028455593,0.020141602
18:36:57.907;0.05209783,-0.04811388,8.069341,0.31342387,-0.3530141,-0.0024744272,-18.812897,-37.2865,9.016001,220.99187,0.0,0.0,0.0,0.0,1007.86,29.5,44.9715,9999999.0,44.9715,9999999.0,-0.025624592,-0.041159045,-0.0028251132,-0.341618,-0.36990523,0.024217766,-0.015621699,-0.004433299,0.03866577
18:36:57.931;0.04933971,-0.046152547,8.064376,0.31342387,-0.29197896,0.119595885,-18.822317,-37.2812,9.016001,220.97707,0.0,0.0,0.0,0.0,1007.92,29.5,44.46947,9999999.0,44.46947,9999999.0,-0.03952203,-0.0526097,-0.0017574747,-0.3278949,-0.35053867,0.03173994,-0.022629194,-0.004492685,0.053466797
18:36:57.957;0.039471768,-0.044583485,8.060404,0.37445903,-0.3530141,-0.06350958,-18.829853,-37.276962,9.016001,220.96521,0.0,0.0,0.0,0.0,1007.92,29.5,44.46947,9999999.0,44.46947,9999999.0,-0.048354402,-0.061993524,0.0026314342,-0.31690583,-0.2805707,0.041475873,-0.03180756,-0.0013831921,0.065322876
18:36:57.981;0.031577416,-0.05098968,8.064888,0.25238872,-0.29197896,-0.0024744272,-18.835882,-37.29197,9.034401,220.96712,0.0,0.0,0.0,0.0,1007.95996,29.5,44.1339,9999999.0,44.1339,9999999.0,-0.062062282,-0.072175,0.0023533695,-0.36224088,-0.22433135,0.047533203,-0.038815055,-0.0029074221,0.06341553
18:36:58.005;0.032923378,-0.04845319,8.060814,0.25238872,-0.2309438,-0.0024744272,-18.840706,-37.303974,9.049121,220.96863,0.0,0.0,0.0,0.0,1007.86,29.5,44.9715,9999999.0,44.9715,9999999.0,-0.07168322,-0.08036159,0.0034862007,-0.34439534,-0.23401186,0.053590532,-0.044357706,-0.0029668084,0.061904907
18:36:58.036;0.034000147,-0.05408544,8.057554,0.43549418,-0.29197896,-0.06350958,-18.844564,-37.31358,9.060897,220.96985,0.0,0.0,0.0,0.0,1007.92,29.5,44.46947,9999999.0,44.46947,9999999.0,-0.073215686,-0.08545692,0.0045549865,-0.38458237,-0.24176188,0.067090854,-0.053409055,-0.0030435156,0.060684204
18:36:58.059;0.034861565,-0.066252686,8.062609,0.31342387,-0.47508442,-0.06350958,-18.847652,-37.321262,9.070317,220.97081,0.0,0.0,0.0,0.0,1007.89996,29.5,44.635933,9999999.0,44.635933,9999999.0,-0.08609921,-0.1000402,0.004226838,-0.47080028,-0.24772884,0.0742996,-0.064335994,-0.004504236,0.0597229
18:36:58.082;0.027889252,-0.060663596,8.0589905,0.31342387,-0.2309438,-0.0024744272,-18.850122,-37.32741,9.077854,220.97159,0.0,0.0,0.0,0.0,1007.86,29.5,44.9715,9999999.0,44.9715,9999999.0,-0.09960041,-0.106779344,0.0038896883,-0.43128002,-0.19827357,0.08150835,-0.0696477,-0.0059649562,0.058944702
18:36:58.110;0.03763429,-0.048530877,8.079081,0.31342387,-0.10887349,-0.06350958,-18.852098,-37.31393,9.083883,220.96085,0.0,0.0,0.0,0.0,1007.92,29.5,44.46947,9999999.0,44.46947,9999999.0,-0.10292674,-0.109193504,0.0051377327,-0.34416673,-0.2668907,0.09028422,-0.07269616,-0.00603424,0.06968689
18:36:58.135;0.045430325,-0.046486147,8.064507,0.37445903,-0.3530141,0.05856073,-18.85368,-37.303146,9.088707,220.95224,0.0,0.0,0.0,0.0,1007.98,29.5,43.967438,9999999.0,43.967438,9999999.0,-0.1044406,-0.11745582,0.0050448487,-0.33026055,-0.3227594,0.0996457,-0.08152151,-0.00762198,0.07829285
18:36:58.163;0.044005707,-0.044850364,8.060509,0.43549418,-0.41404927,-0.06350958,-18.854944,-37.294518,9.092566,220.94536,0.0,0.0,0.0,0.0,1007.86,29.5,44.9715,9999999.0,44.9715,9999999.0,-0.10953269,-0.124959424,0.008254347,-0.3187977,-0.3127938,0.11183953,-0.09311489,-0.0059822793,0.08517456
18:36:58.191;0.04286601,-0.043541737,8.05731,0.31342387,-0.3530141,0.119595885,-18.855955,-37.287613,9.077252,220.93985,0.0,0.0,0.0,0.0,1007.86,29.5,44.9715,9999999.0,44.9715,9999999.0,-0.12035942,-0.13338926,0.008222455,-0.30961922,-0.3048142,0.12030198,-0.10264627,-0.0076970384,0.09068298
18:36:58.218;0.041954253,-0.042494833,8.062413,0.31342387,-0.5361196,-0.0024744272,-18.856764,-37.28209,9.065002,220.93544,0.0,0.0,0.0,0.0,1007.98,29.5,43.967438,9999999.0,43.967438,9999999.0,-0.12846796,-0.14604716,0.013124367,-0.30198392,-0.2981423,0.12876442,-0.117121495,-0.0044679493,0.09509277
18:36:58.245;0.04122485,-0.026334422,8.081819,0.37445903,-0.2309438,-0.06350958,-18.85741,-37.29607,9.073602,220.9433,0.0,0.0,0.0,0.0,1007.89996,29.6,44.635933,9999999.0,44.635933,9999999.0,-0.13695191,-0.1461688,0.014541095,-0.1866939,-0.29225808,0.13887481,-0.123356976,-0.0045347586,0.0872345
18:36:58.272;0.04830277,-0.036390428,8.074358,0.5575645,-0.2309438,0.119595885,-18.85793,-37.307255,9.080482,220.94958,0.0,0.0,0.0,0.0,1007.86,29.5,44.9715,9999999.0,44.9715,9999999.0,-0.13311027,-0.14364015,0.014126527,-0.2582207,-0.34274969,0.15448663,-0.1298234,-0.006313027,0.080947876
18:36:58.298;0.053965107,-0.05209668,8.060728,0.25238872,-0.2309438,0.119595885,-18.858343,-37.316204,9.085985,220.9546,0.0,0.0,0.0,0.0,1007.92,29.5,44.46947,9999999.0,44.46947,9999999.0,-0.14174227,-0.1524633,0.018409854,-0.37029055,-0.38357106,0.16104874,-0.13582794,-0.0032035338,0.075927734
18:36:58.324;0.05083353,-0.049338788,8.057486,0.1303184,-0.2309438,-0.06350958,-18.840275,-37.323364,9.071988,220.98114,0.0,0.0,0.0,0.0,1007.86,29.5,44.9715,9999999.0,44.9715,9999999.0,-0.15311012,-0.16316155,0.022076814,-0.3508306,-0.36145934,0.16443703,-0.14183249,-9.404076E-5,0.0493927
18:36:58.351;0.04832827,-0.05479392,8.054892,0.19135356,-0.29197896,0.119595885,-18.82582,-37.32909,9.060791,221.00235,0.0,0.0,0.0,0.0,1007.98,29.5,43.967438,9999999.0,43.967438,9999999.0,-0.16263,-0.17397827,0.020518472,-0.3897452,-0.34375492,0.16960357,-0.14971592,-0.0018087996,0.028182983
18:36:58.384;0.053985506,-0.059158027,8.052816,0.43549418,-0.29197896,-0.0024744272,-18.832657,-37.352074,9.051833,221.00816,0.0,0.0,0.0,0.0,1007.98,29.5,43.967438,9999999.0,43.967438,9999999.0,-0.16483265,-0.1786604,0.024423221,-0.42089227,-0.3840907,0.18397488,-0.15935121,0.0021378647,0.022369385
18:36:58.411;0.05084985,-0.054987866,8.051157,0.06928325,-0.29197896,-0.0024744272,-18.838125,-37.37046,9.044666,221.01282,0.0,0.0,0.0,0.0,1007.98,29.5,43.967438,9999999.0,43.967438,9999999.0,-0.18108006,-0.19242138,0.024223592,-0.39130536,-0.36185795,0.18584552,-0.16723464,0.0020710551,0.017715454
18:36:58.436;0.048341326,-0.059313186,8.05749,0.25238872,-0.04783833,-0.12454474,-18.8425,-37.34837,9.057333,220.99385,0.0,0.0,0.0,0.0,1007.89996,29.5,44.635933,9999999.0,44.635933,9999999.0,-0.19082448,-0.19505474,0.02441214,-0.42175323,-0.34373552,0.19215524,-0.1684306,0.0020091943,0.03668213
18:36:58.460;0.046334505,-0.06277344,8.062557,0.43549418,-0.47508442,-0.06350958,-18.846,-37.330696,9.067467,220.97865,0.0,0.0,0.0,0.0,1007.98,29.5,43.967438,9999999.0,43.967438,9999999.0,-0.18983236,-0.20379485,0.022032201,-0.44607696,-0.32925805,0.2026071,-0.17983262,-9.798794E-4,0.051879883
18:36:58.484;0.04472905,-0.057880193,8.051288,0.1303184,-0.10887349,0.05856073,-18.8488,-37.31656,9.075573,220.9665,0.0,0.0,0.0,0.0,1007.95996,29.5,44.1339,9999999.0,44.1339,9999999.0,-0.2048915,-0.20972028,0.021378329,-0.41188225,-0.31829607,0.20573473,-0.18244559,-0.0025041094,0.06402588
18:36:58.513;0.043444686,-0.0539656,8.057595,0.31342387,-0.47508442,0.18063104,-18.85104,-37.323647,9.100458,220.96814,0.0,0.0,0.0,0.0,1008.00995,29.6,43.716423,9999999.0,43.716423,9999999.0,-0.2042929,-0.21988724,0.02386292,-0.38372612,-0.30891564,0.21482402,-0.19622304,-8.058483E-4,0.06239319
18:36:58.538;0.042417195,-0.050833926,8.047318,0.31342387,-0.16990864,-0.06350958,-18.852833,-37.32932,9.120366,220.96945,0.0,0.0,0.0,0.0,1008.07,29.6,43.21439,9999999.0,43.21439,9999999.0,-0.21504901,-0.2209507,0.02903274,-0.3619206,-0.30199566,0.22265962,-0.20047075,0.0037099277,0.061080933
18:36:58.565;0.033933755,-0.04066714,8.046759,0.25238872,-0.3530141,0.2416662,-18.854267,-37.333855,9.136292,220.9705,0.0,0.0,0.0,0.0,1007.89996,29.5,44.635933,9999999.0,44.635933,9999999.0,-0.215892,-0.22540128,0.028034423,-0.28955942,-0.24161588,0.22922173,-0.20964912,0.0020586783,0.060028076
18:36:58.590;0.03480845,-0.055518046,8.053972,0.25238872,-0.3530141,-0.12454474,-18.855413,-37.337482,9.093834,220.97134,0.0,0.0,0.0,0.0,1007.95996,29.5,44.1339,9999999.0,44.1339,9999999.0,-0.22236127,-0.23186122,0.034815162,-0.3949442,-0.2476191,0.23578385,-0.21882749,0.008342,0.059188843
18:36:58.618;0.035508204,-0.05207588,8.059743,0.31342387,-0.5361196,-0.06350958,-18.85633,-37.340385,9.059867,220.97202,0.0,0.0,0.0,0.0,1007.95996,29.6,44.1339,9999999.0,44.1339,9999999.0,-0.22602749,-0.2412664,0.0318717,-0.37019268,-0.25241682,0.24455972,-0.23383884,0.004854747,0.058517456
18:36:58.646;0.036068007,-0.056983598,8.06436,0.37445903,-0.29197896,-0.0024744272,-18.857065,-37.34271,9.069493,220.97255,0.0,0.0,0.0,0.0,1008.02997,29.6,43.549957,9999999.0,43.549957,9999999.0,-0.23426285,-0.24271446,0.030651229,-0.40484712,-0.25624838,0.25504458,-0.24201426,0.0030764788,0.0579834
18:36:58.674;0.044177298,-0.053248324,8.068052,0.25238872,-0.16990864,0.119595885,-18.857653,-37.344566,9.077194,220.97298,0.0,0.0,0.0,0.0,1007.95996,29.5,44.1339,9999999.0,44.1339,9999999.0,-0.23849732,-0.24466403,0.031121427,-0.37813514,-0.31371787,0.26211146,-0.24677171,0.003007195,0.057556152
18:36:58.701;0.043003283,-0.05792155,8.078669,0.31342387,-0.5361196,-0.06350958,-18.839722,-37.364452,9.083355,221.00716,0.0,0.0,0.0,0.0,1007.89996,29.6,44.635933,9999999.0,44.635933,9999999.0,-0.23969315,-0.2551846,0.03413103,-0.41078013,-0.3049785,0.2705739,-0.26124695,0.006236284,0.023376465
18:36:58.739;0.04206407,-0.053998686,8.0795,0.37445903,-0.2309438,0.05856073,-18.825378,-37.380363,9.088284,221.0345,0.0,0.0,0.0,0.0,1007.83997,29.5,45.137966,9999999.0,45.137966,9999999.0,-0.24416143,-0.253618,0.031066211,-0.38292083,-0.29828802,0.2844289,-0.26979187,0.0038864294,-0.003967285
18:36:58.764;0.041312702,-0.050860394,8.080165,0.25238872,-0.3530141,-0.24661505,-18.813904,-37.39309,9.092227,221.05637,0.0,0.0,0.0,0.0,1007.89996,29.6,44.635933,9999999.0,44.635933,9999999.0,-0.24932753,-0.2591945,0.031420354,-0.36063737,-0.2929366,0.290991,-0.27897024,0.0054090084,-0.02583313
18:36:58.792;0.040711608,-0.056011207,8.073035,0.31342387,-0.3530141,-0.12454474,-18.804724,-37.384872,9.095382,221.06253,0.0,0.0,0.0,0.0,1007.89996,29.5,44.635933,9999999.0,44.635933,9999999.0,-0.2536676,-0.26371354,0.02362656,-0.39751014,-0.28892818,0.29945347,-0.28850162,-0.0012495983,-0.03199768
18:36:58.872;0.040230732,-0.052470412,8.074993,0.31342387,-0.5361196,-0.24661505,-18.797379,-37.359898,9.079506,221.05615,0.0,0.0,0.0,0.0,1007.89996,29.6,44.635933,9999999.0,44.635933,9999999.0,-0.24131267,-0.28475255,0.0127552785,-0.37229177,-0.28544712,0.32452738,-0.3319273,-0.011337723,-0.025619507
18:36:58.898;0.039846033,-0.049637776,8.076559,0.31342387,-0.47508442,-0.06350958,-18.791504,-37.33992,9.066805,221.05104,0.0,0.0,0.0,0.0,1008.00995,29.6,43.716423,9999999.0,43.716423,9999999.0,-0.27811396,-0.2898445,0.0060479483,-0.35212576,-0.28266343,0.3326764,-0.34380442,-0.0175031,-0.020507813
18:36:58.923;0.03953827,-0.05503311,8.07015,0.25238872,-0.04783833,-0.06350958,-18.805202,-37.342335,9.075044,221.03575,0.0,0.0,0.0,0.0,1007.92,29.6,44.46947,9999999.0,44.46947,9999999.0,-0.28543094,-0.2865553,0.0042043948,-0.39070874,-0.28070176,0.33923852,-0.34504822,-0.01915435,-0.005218506
18:36:58.950;0.039292064,-0.05934938,8.072685,0.19135356,-0.41404927,-0.12454474,-18.816162,-37.34427,9.0816345,221.02353,0.0,0.0,0.0,0.0,1007.92,29.5,44.46947,9999999.0,44.46947,9999999.0,-0.28418532,-0.29503465,0.0025799188,-0.42121887,-0.2788652,0.34440508,-0.35622755,-0.020869108,0.007003784
18:36:58.976;0.039095096,-0.0628024,8.067052,0.37445903,-0.41404927,0.05856073,-18.80653,-37.345814,9.068508,221.03627,0.0,0.0,0.0,0.0,1007.92,29.6,44.46947,9999999.0,44.46947,9999999.0,-0.28851345,-0.29884636,-7.5982546E-4,-0.44603622,-0.27766013,0.35414103,-0.36699283,-0.024107272,-0.0057373047
18:36:59.002;0.038937524,-0.057903364,8.062545,0.31342387,-0.2309438,-0.06350958,-18.798824,-37.34705,9.058006,221.04646,0.0,0.0,0.0,0.0,1007.89996,29.6,44.635933,9999999.0,44.635933,9999999.0,-0.29311287,-0.298669,4.2889526E-4,-0.4114734,-0.27669686,0.36229005,-0.37299737,-0.022584694,-0.015930176
18:36:59.037;0.038811464,-0.061645582,8.066601,-0.052787066,-0.2309438,-0.12454474,-18.81106,-37.34804,9.031205,221.0321,0.0,0.0,0.0,0.0,1007.95996,29.6,44.1339,9999999.0,44.1339,9999999.0,-0.30326313,-0.31063247,-0.0017894944,-0.43784514,-0.27566147,0.36044252,-0.38108042,-0.02480753,-0.0015716553
18:36:59.062;0.038710617,-0.056977913,8.062184,0.31342387,-0.3530141,-0.12454474,-18.820848,-37.348835,9.009764,221.02061,0.0,0.0,0.0,0.0,1008.00995,29.6,43.716423,9999999.0,43.716423,9999999.0,-0.30483925,-0.31289324,-0.0046066865,-0.40491533,-0.27509698,0.36827812,-0.38990578,-0.027921148,0.009918213
18:36:59.088;0.038629938,-0.06090522,8.066313,0.37445903,-0.59715474,-0.0024744272,-18.828678,-37.34947,8.992611,221.01143,0.0,0.0,0.0,0.0,1007.89996,29.6,44.635933,9999999.0,44.635933,9999999.0,-0.3057462,-0.32033443,-0.007305873,-0.43260235,-0.27438217,0.37801406,-0.4054318,-0.031159312,0.019104004
18:36:59.115;0.038565397,-0.05638562,8.069615,0.31342387,-0.10887349,-0.0024744272,-18.816544,-37.349976,8.9788885,221.02658,0.0,0.0,0.0,0.0,1007.98,29.6,43.967438,9999999.0,43.967438,9999999.0,-0.31394845,-0.31591982,-0.007143764,-0.40033737,-0.27381277,0.3861631,-0.40826252,-0.031223647,0.0039520264
18:36:59.142;0.038513765,-0.060431387,8.064596,0.37445903,-0.29197896,0.119595885,-18.806835,-37.35038,8.967911,221.03871,0.0,0.0,0.0,0.0,1007.98,29.6,43.967438,9999999.0,43.967438,9999999.0,-0.30791283,-0.31523877,-0.007232361,-0.42932826,-0.27361536,0.39664793,-0.41643792,-0.03129293,-0.008178711
18:36:59.168;0.03847246,-0.056006555,8.06058,0.1303184,-0.41404927,-0.06350958,-18.817469,-37.332306,8.977529,221.01456,0.0,0.0,0.0,0.0,1007.89996,29.6,44.635933,9999999.0,44.635933,9999999.0,-0.31357533,-0.32332298,-0.0037208921,-0.39809182,-0.27345917,0.40003622,-0.4272032,-0.028183438,0.015975952
18:36:59.196;0.03843941,-0.060128134,8.057367,0.19135356,-0.2309438,0.119595885,-18.825975,-37.317844,8.985223,220.99522,0.0,0.0,0.0,0.0,1007.89996,29.6,44.635933,9999999.0,44.635933,9999999.0,-0.32034445,-0.32551497,-0.004620762,-0.42755717,-0.2733322,0.40520278,-0.4334387,-0.029898196,0.035308838
18:36:59.220;0.03075153,-0.048102506,8.062459,0.31342387,-0.3530141,0.05856073,-18.83278,-37.306274,8.991379,220.97975,0.0,0.0,0.0,0.0,1008.02997,29.6,43.549957,9999999.0,43.549957,9999999.0,-0.31816244,-0.32481864,-5.826235E-4,-0.3418334,-0.21853048,0.41303837,-0.44226405,-0.026908299,0.05078125
18:36:59.244;0.032262668,-0.04614345,8.05887,0.1303184,-0.41404927,-0.0024744272,-18.819824,-37.31542,8.977903,221.00125,0.0,0.0,0.0,0.0,1007.95996,29.6,44.1339,9999999.0,44.1339,9999999.0,-0.32194608,-0.32942724,0.0013346195,-0.32805774,-0.22937143,0.41603568,-0.45178717,-0.025561402,0.029281616
18:36:59.268;0.041133024,-0.044576205,8.048338,0.31342387,-0.41404927,-0.0024744272,-18.80946,-37.322735,8.967123,221.01846,0.0,0.0,0.0,0.0,1007.95996,29.6,44.1339,9999999.0,44.1339,9999999.0,-0.3215064,-0.33107683,0.0014886975,-0.31732875,-0.29281723,0.42387128,-0.4621384,-0.025623262,0.012069702
18:36:59.293;0.040567864,-0.04332241,8.039912,0.43549418,-0.41404927,0.18063104,-18.801168,-37.328587,8.958498,221.03221,0.0,0.0,0.0,0.0,1007.95996,29.6,44.1339,9999999.0,44.1339,9999999.0,-0.31996024,-0.32948717,0.0013647309,-0.3087267,-0.28909692,0.43475863,-0.47248966,-0.025685122,-0.0016784668
18:36:59.318;0.040115736,-0.057642266,8.048494,0.25238872,-0.41404927,0.05856073,-18.812935,-37.31487,8.951598,221.00935,0.0,0.0,0.0,0.0,1008.00995,29.6,43.716423,9999999.0,43.716423,9999999.0,-0.32492054,-0.3342777,0.00618648,-0.41033277,-0.28556702,0.44106835,-0.4828409,-0.021169346,0.0211792
18:36:59.341;0.039754033,-0.05377526,8.063022,0.25238872,-0.41404927,-0.06350958,-18.822348,-37.303894,8.946078,220.99104,0.0,0.0,0.0,0.0,1008.00995,29.6,43.716423,9999999.0,43.716423,9999999.0,-0.32954565,-0.33793706,0.008172504,-0.38211632,-0.28248334,0.44687328,-0.49236402,-0.019822448,0.039489746
18:36:59.365;0.031803228,-0.058343098,8.05932,0.43549418,-0.3530141,-0.0024744272,-18.829878,-37.295116,8.960063,220.97641,0.0,0.0,0.0,0.0,1007.98,29.6,43.967438,9999999.0,43.967438,9999999.0,-0.32923082,-0.33547089,0.007597766,-0.4147656,-0.22609022,0.45732513,-0.5008364,-0.021346679,0.054122925
18:36:59.389;0.03310403,-0.06199737,8.064021,0.37445903,-0.29197896,-0.0024744272,-18.835903,-37.288094,8.971251,220.96469,0.0,0.0,0.0,0.0,1007.95996,29.6,44.1339,9999999.0,44.1339,9999999.0,-0.32876393,-0.33376002,0.008704444,-0.4404859,-0.23519959,0.46631214,-0.50784385,-0.021406066,0.065841675
18:36:59.413;0.03414467,-0.05725934,8.075443,0.43549418,-0.47508442,-0.12454474,-18.840723,-37.282475,8.980201,220.9553,0.0,0.0,0.0,0.0,1008.00995,29.6,43.716423,9999999.0,43.716423,9999999.0,-0.32496697,-0.33448663,0.009976672,-0.40624818,-0.24225105,0.476764,-0.51924586,-0.021465452,0.07522583
18:36:59.451;0.034977183,-0.061130363,8.061597,0.37445903,-0.29197896,0.18063104,-18.844578,-37.29638,8.987361,220.9592,0.0,0.0,0.0,0.0,1007.92,29.6,44.46947,9999999.0,44.46947,9999999.0,-0.32290813,-0.33200878,0.006687842,-0.43445632,-0.24858285,0.49061897,-0.5300491,-0.026073609,0.07133484
18:36:59.479;0.03564319,-0.06422718,8.065843,0.19135356,-0.41404927,-0.12454474,-18.847662,-37.307503,8.993089,220.9623,0.0,0.0,0.0,0.0,1007.89996,29.6,44.635933,9999999.0,44.635933,9999999.0,-0.32905483,-0.33930463,0.013052365,-0.4562242,-0.25318202,0.49616823,-0.5420565,-0.020835308,0.068237305
18:36:59.504;0.036175996,-0.059043188,8.061578,0.37445903,-0.29197896,0.05856073,-18.86853,-37.316402,8.997671,220.94228,0.0,0.0,0.0,0.0,1008.02997,29.6,43.549957,9999999.0,43.549957,9999999.0,-0.33210376,-0.3374711,0.01162716,-0.4196239,-0.2571038,0.50515527,-0.549064,-0.023824383,0.088256836
18:36:59.532;0.036602244,-0.054895997,8.058166,0.43549418,-0.47508442,0.05856073,-18.885223,-37.32352,9.001337,220.92627,0.0,0.0,0.0,0.0,1007.98,29.5,43.967438,9999999.0,43.967438,9999999.0,-0.32657802,-0.33828765,0.015086788,-0.39031562,-0.26024422,0.5173491,-0.56236637,-0.022184681,0.104263306
18:36:59.559;0.036943242,-0.05923969,8.055436,0.37445903,-0.2309438,0.2416662,-18.898579,-37.329216,9.00427,220.91347,0.0,0.0,0.0,0.0,1008.07,29.6,43.21439,9999999.0,43.21439,9999999.0,-0.3300405,-0.3348056,0.018675875,-0.4213412,-0.2627567,0.5274595,-0.56860185,-0.020603541,0.11706543
18:36:59.585;0.037216038,-0.04739175,8.060914,0.19135356,-0.2309438,-0.0024744272,-18.890863,-37.333775,9.025016,220.92572,0.0,0.0,0.0,0.0,1007.89996,29.6,44.635933,9999999.0,44.635933,9999999.0,-0.32978317,-0.33458868,0.026793096,-0.33684605,-0.2645196,0.53262603,-0.5748373,-0.014078554,0.10481262
18:36:59.613;0.037434276,-0.045574844,8.057634,0.25238872,-0.41404927,-0.1855799,-18.884691,-37.33742,9.041613,220.93552,0.0,0.0,0.0,0.0,1008.00995,29.6,43.716423,9999999.0,43.716423,9999999.0,-0.32745266,-0.3375887,0.028089665,-0.3240641,-0.2661794,0.53969294,-0.5864307,-0.014147838,0.09501648
18:36:59.641;0.037608866,-0.04412132,8.055011,0.31342387,-0.41404927,-0.06350958,-18.879753,-37.340336,9.01809,220.94334,0.0,0.0,0.0,0.0,1007.92,29.5,44.46947,9999999.0,44.46947,9999999.0,-0.3285132,-0.33865464,0.024179332,-0.31383106,-0.26750818,0.5484688,-0.59802413,-0.019344075,0.08718872
18:36:59.668;0.037748538,-0.0429585,8.060574,0.1303184,-0.2309438,-0.0024744272,-18.875803,-37.34267,8.999272,220.94962,0.0,0.0,0.0,0.0,1007.98,29.6,43.967438,9999999.0,43.967438,9999999.0,-0.33454028,-0.33932656,0.02363363,-0.30534932,-0.26831657,0.5519874,-0.6042596,-0.021058833,0.08091736
18:36:59.695;0.037860274,-0.04202825,8.057363,0.31342387,-0.3530141,-0.0024744272,-18.872643,-37.326138,8.984218,220.94327,0.0,0.0,0.0,0.0,1007.86,29.5,44.9715,9999999.0,44.9715,9999999.0,-0.33022395,-0.33834457,0.024840781,-0.2988562,-0.26921818,0.56044984,-0.613791,-0.021125643,0.087265015
18:36:59.723;0.04561111,-0.04894549,8.039471,0.43549418,-0.3530141,-0.12454474,-18.870113,-37.312912,8.972174,220.93819,0.0,0.0,0.0,0.0,1008.00995,29.6,43.716423,9999999.0,43.716423,9999999.0,-0.32660404,-0.33625972,0.02612299,-0.3488153,-0.3250522,0.5726437,-0.6236754,-0.021194927,0.09234619
18:36:59.753;0.044150334,-0.04681784,8.0481415,0.43549418,-0.41404927,-0.0024744272,-18.868092,-37.30233,8.962539,220.93411,0.0,0.0,0.0,0.0,1008.00995,29.6,43.716423,9999999.0,43.716423,9999999.0,-0.32339686,-0.33538803,0.023867318,-0.3332936,-0.31430358,0.5857085,-0.6360969,-0.024931269,0.09642029
18:36:59.784;0.042981714,-0.052777164,8.0550785,0.19135356,-0.41404927,0.05856073,-18.866474,-37.312263,8.973231,220.94223,0.0,0.0,0.0,0.0,1008.00995,29.6,43.716423,9999999.0,43.716423,9999999.0,-0.33056235,-0.34223858,0.025083276,-0.3753933,-0.3057195,0.5914491,-0.6485184,-0.0250055,0.08830261
18:36:59.810;0.042046815,-0.049883176,8.045305,0.43549418,-0.41404927,-0.06350958,-18.86518,-37.32021,8.981785,220.94873,0.0,0.0,0.0,0.0,1008.00995,29.6,43.716423,9999999.0,43.716423,9999999.0,-0.33097544,-0.34130034,0.027767172,-0.3552407,-0.29943386,0.6032074,-0.6596977,-0.02342436,0.08180237
18:36:59.839;0.033637453,-0.055229433,8.052809,0.49652934,-0.2309438,-0.0024744272,-18.845743,-37.308167,9.007028,220.96506,0.0,0.0,0.0,0.0,1008.00995,29.6,43.716423,9999999.0,43.716423,9999999.0,-0.32870853,-0.3332579,0.026778635,-0.39294812,-0.23932365,0.61711025,-0.66616416,-0.02520263,0.065475464
18:36:59.877;0.03457141,-0.05950644,8.066473,0.31342387,-0.41404927,0.05856073,-18.830194,-37.298534,9.027222,220.97813,0.0,0.0,0.0,0.0,1007.92,29.6,44.46947,9999999.0,44.46947,9999999.0,-0.3230669,-0.33734152,0.027196463,-0.4226599,-0.24555092,0.6293338,-0.6823121,-0.025299132,0.05239868
18:36:59.906;0.035318572,-0.055266596,8.046759,0.37445903,-0.29197896,-0.1855799,-18.817757,-37.309227,9.024978,220.99997,0.0,0.0,0.0,0.0,1008.00995,29.6,43.716423,9999999.0,43.716423,9999999.0,-0.32782272,-0.33459377,0.028928097,-0.3935078,-0.25147322,0.6401931,-0.69077945,-0.02360087,0.030563354
18:36:59.933;0.035916302,-0.059536166,8.04631,0.31342387,-0.41404927,0.05856073,-18.807806,-37.317783,9.023182,221.01743,0.0,0.0,0.0,0.0,1007.89996,29.6,44.635933,9999999.0,44.635933,9999999.0,-0.3280873,-0.33759615,0.023701238,-0.42393032,-0.25574237,0.64865553,-0.7019588,-0.028611528,0.0131073
18:36:59.967;0.036394488,-0.062951826,8.053614,0.25238872,-0.10887349,-0.1855799,-18.818245,-37.324627,9.021746,221.00887,0.0,0.0,0.0,0.0,1008.07,29.6,43.21439,9999999.0,43.21439,9999999.0,-0.3313915,-0.33356956,0.025611807,-0.44784415,-0.25891143,0.65723675,-0.70566046,-0.026620463,0.02166748
18:36:59.991;0.036777034,-0.06568435,8.059456,0.25238872,-0.41404927,-0.0024744272,-18.826595,-37.3301,9.0205965,221.00203,0.0,0.0,0.0,0.0,1007.92,29.6,44.46947,9999999.0,44.46947,9999999.0,-0.33030084,-0.33866212,0.0213048,-0.46694386,-0.26144248,0.6632941,-0.7155976,-0.03107438,0.028503418
18:37:00.015;0.037083074,-0.06787037,8.06413,0.31342387,-0.3530141,-0.24661505,-18.833277,-37.33448,9.019677,220.99655,0.0,0.0,0.0,0.0,1008.00995,29.6,43.716423,9999999.0,43.716423,9999999.0,-0.33416122,-0.34105018,0.02150013,-0.48220366,-0.2634647,0.67081624,-0.72406995,-0.031133767,0.033981323
18:37:00.051;0.02966646,-0.061957743,8.067869,0.25238872,-0.41404927,-0.12454474,-18.838621,-37.301186,9.018942,220.96945,0.0,0.0,0.0,0.0,1007.95996,29.6,44.1339,9999999.0,44.1339,9999999.0,-0.3341248,-0.3462635,0.013591166,-0.43999517,-0.21067584,0.67990226,-0.7389757,-0.04001191,0.061080933
18:37:00.078;0.031394612,-0.05722764,8.078522,0.25238872,-0.16990864,0.05856073,-18.842897,-37.274548,9.018353,220.94774,0.0,0.0,0.0,0.0,1008.08997,29.6,43.047928,9999999.0,43.047928,9999999.0,-0.3407774,-0.34291074,0.011679771,-0.40586916,-0.22265516,0.68671674,-0.74356323,-0.043374617,0.08279419
18:37:00.105;0.032777134,-0.061105005,8.071721,0.1303184,-0.3530141,-0.06350958,-18.827919,-37.308437,9.036283,220.98703,0.0,0.0,0.0,0.0,1008.00995,29.6,43.716423,9999999.0,43.716423,9999999.0,-0.3412789,-0.34844717,0.013865748,-0.43373194,-0.23265514,0.6902353,-0.7530946,-0.041793477,0.043502808
18:37:00.136;0.033883154,-0.05654545,8.06628,0.37445903,-0.5361196,-0.06350958,-18.815935,-37.33555,9.050626,221.01843,0.0,0.0,0.0,0.0,1007.92,29.6,44.46947,9999999.0,44.46947,9999999.0,-0.3381349,-0.3524729,0.011901016,-0.40163916,-0.24066888,0.70184356,-0.7697143,-0.043762274,0.01210022
18:37:00.168;0.03476797,-0.052897807,8.054266,0.37445903,-0.41404927,-0.0024744272,-18.843147,-37.33884,9.0621,220.98718,0.0,0.0,0.0,0.0,1007.98,29.6,43.967438,9999999.0,43.967438,9999999.0,-0.34157318,-0.352267,0.010600578,-0.3762912,-0.24732268,0.7134518,-0.7825498,-0.04573107,0.04335022
18:37:00.196;0.027814377,-0.057641137,8.052317,0.31342387,-0.3530141,0.05856073,-18.864918,-37.341473,9.0712805,220.96219,0.0,0.0,0.0,0.0,1007.89996,29.6,44.635933,9999999.0,44.635933,9999999.0,-0.34482396,-0.35157228,0.011687549,-0.41013262,-0.19790569,0.7222277,-0.7924342,-0.045800354,0.068344116
18:37:00.224;0.022251502,-0.06909724,8.06608,0.1303184,-0.3530141,-0.06350958,-18.882334,-37.34358,9.060225,220.9422,0.0,0.0,0.0,0.0,1007.95996,29.6,44.1339,9999999.0,44.1339,9999999.0,-0.350781,-0.35661313,0.014827366,-0.49080452,-0.15805288,0.7258766,-0.80231863,-0.044160653,0.08833313
18:37:00.253;0.025462646,-0.07060069,8.061768,0.49652934,-0.3530141,-0.06350958,-18.896267,-37.345264,9.05138,220.92622,0.0,0.0,0.0,0.0,1007.98,29.6,43.967438,9999999.0,43.967438,9999999.0,-0.34491792,-0.35201737,0.014749817,-0.50175077,-0.180958,0.7407725,-0.81290907,-0.04606594,0.10430908
18:37:00.281;0.020370116,-0.07180344,8.050656,0.31342387,-0.3530141,-0.0024744272,-18.907413,-37.34661,9.044304,220.91344,0.0,0.0,0.0,0.0,1008.00995,29.6,43.716423,9999999.0,43.716423,9999999.0,-0.34659675,-0.35225084,0.015054034,-0.5110033,-0.14496617,0.7495484,-0.8227935,-0.04784421,0.11709595
18:37:00.310;0.02395754,-0.0651042,8.041767,0.1303184,-0.29197896,-0.0024744272,-18.89793,-37.31089,9.038643,220.90292,0.0,0.0,0.0,0.0,1007.92,29.5,44.46947,9999999.0,44.46947,9999999.0,-0.350779,-0.35547516,0.017234813,-0.46384057,-0.17068598,0.7533276,-0.83126086,-0.047915965,0.12760925
18:37:00.341;0.026827477,-0.059744805,8.042317,0.5575645,-0.41404927,0.05856073,-18.890345,-37.282314,9.034115,220.8945,0.0,0.0,0.0,0.0,1007.89996,29.6,44.635933,9999999.0,44.635933,9999999.0,-0.33993942,-0.34954187,0.019535583,-0.42562896,-0.19112067,0.7706121,-0.84409636,-0.047992673,0.1360321
18:37:00.370;0.029123427,-0.05545729,8.058081,0.37445903,-0.41404927,-0.06350958,-18.884275,-37.296253,9.048892,220.91055,0.0,0.0,0.0,0.0,1007.95996,29.6,44.1339,9999999.0,44.1339,9999999.0,-0.33979514,-0.34890798,0.023208763,-0.394312,-0.20707197,0.78147143,-0.8561038,-0.046294414,0.11997986
18:37:00.407;0.030960187,-0.052027278,8.070691,0.43549418,-0.16990864,-0.06350958,-18.879421,-37.307404,9.060714,220.92339,0.0,0.0,0.0,0.0,1007.89996,29.6,44.635933,9999999.0,44.635933,9999999.0,-0.33352572,-0.33741185,0.022584671,-0.36934635,-0.21978818,0.7975847,-0.8623904,-0.048644267,0.10714722
18:37:00.446;0.032429595,-0.056944713,8.073118,0.37445903,-0.41404927,-0.0024744272,-18.875538,-37.316322,9.070171,220.93365,0.0,0.0,0.0,0.0,1008.00995,29.6,43.716423,9999999.0,43.716423,9999999.0,-0.32480142,-0.33832756,0.02170544,-0.40413272,-0.23014933,0.8118141,-0.8781243,-0.05105763,0.09687805
18:37:00.483;0.03360512,-0.068540104,8.067398,0.37445903,-0.47508442,0.119595885,-18.87243,-37.32346,9.077737,220.94186,0.0,0.0,0.0,0.0,1007.98,29.6,43.967438,9999999.0,43.967438,9999999.0,-0.32735145,-0.34326974,0.022952557,-0.48676538,-0.23865823,0.82604355,-0.89617753,-0.05115166,0.08866882
18:37:00.516;0.03454554,-0.07781642,8.078145,0.1303184,-0.10887349,-0.0024744272,-18.869946,-37.31077,9.06539,220.93706,0.0,0.0,0.0,0.0,1007.89996,29.6,44.635933,9999999.0,44.635933,9999999.0,-0.34322795,-0.34478453,0.028230742,-0.55190563,-0.24500796,0.8303441,-0.8997704,-0.047204994,0.09347534
18:37:00.547;0.027636433,-0.07757603,8.079081,0.31342387,-0.3530141,-0.06350958,-18.867956,-37.300613,9.055511,220.93321,0.0,0.0,0.0,0.0,1008.07,29.6,43.21439,9999999.0,43.21439,9999999.0,-0.3393698,-0.34722668,0.029537365,-0.5501389,-0.19598415,0.84006023,-0.9107138,-0.0472817,0.09732056
18:37:00.570;0.029770592,-0.07738371,8.072168,0.37445903,-0.5361196,-0.12454474,-18.866365,-37.292492,9.0660095,220.93013,0.0,0.0,0.0,0.0,1007.98,29.6,43.967438,9999999.0,43.967438,9999999.0,-0.34282672,-0.3522803,0.029523168,-0.5492445,-0.21129926,0.8486728,-0.92304456,-0.04874242,0.10040283
18:37:00.603;0.03147792,-0.06956842,8.066638,0.43549418,-0.2309438,-0.0024744272,-18.865093,-37.285995,9.074408,220.92767,0.0,0.0,0.0,0.0,1008.00995,29.6,43.716423,9999999.0,43.716423,9999999.0,-0.3414599,-0.34634456,0.02708417,-0.49411508,-0.22357218,0.8626086,-0.93043476,-0.052727852,0.1028595
18:37:00.632;0.032843783,-0.07097763,8.054552,0.31342387,-0.3530141,0.05856073,-18.864075,-37.2992,9.081126,220.93709,0.0,0.0,0.0,0.0,1007.95996,29.6,44.1339,9999999.0,44.1339,9999999.0,-0.3403006,-0.34854564,0.028338633,-0.50487965,-0.23362276,0.8720113,-0.9410252,-0.052802086,0.093444824
18:37:00.666;0.03393647,-0.07210499,8.052546,0.37445903,-0.41404927,0.05856073,-18.86326,-37.309757,9.086501,220.94461,0.0,0.0,0.0,0.0,1008.00995,29.6,43.716423,9999999.0,43.716423,9999999.0,-0.33935827,-0.35119632,0.03144155,-0.51302594,-0.24145496,0.8847429,-0.95510286,-0.050811023,0.08592224
18:37:00.700;0.03481062,-0.08066833,8.058601,0.37445903,-0.41404927,0.119595885,-18.844208,-37.318207,9.090801,220.97314,0.0,0.0,0.0,0.0,1007.89996,29.6,44.635933,9999999.0,44.635933,9999999.0,-0.34353274,-0.35500216,0.033854343,-0.5735186,-0.24748579,0.8971001,-0.9687665,-0.048878517,0.057388306
18:37:00.733;0.035509944,-0.07985756,8.071108,0.25238872,-0.41404927,0.05856073,-18.828966,-37.324966,9.094241,220.99596,0.0,0.0,0.0,0.0,1008.02997,29.6,43.549957,9999999.0,43.549957,9999999.0,-0.35083002,-0.36265087,0.03785372,-0.5668748,-0.25206667,0.9056813,-0.9828442,-0.044812255,0.034576416
18:37:00.764;0.043730848,-0.07920894,8.073451,0.37445903,-0.47508442,0.119595885,-18.853573,-37.33037,9.0969925,220.9692,0.0,0.0,0.0,0.0,1008.00995,29.6,43.716423,9999999.0,43.716423,9999999.0,-0.35563084,-0.36869237,0.04004514,-0.5621048,-0.3103317,0.91691506,-0.9970967,-0.043055434,0.061340332
18:37:00.795;0.042646125,-0.0710286,8.075326,0.37445903,-0.41404927,-0.0024744272,-18.873259,-37.334698,9.099194,220.9478,0.0,0.0,0.0,0.0,1008.00995,29.6,43.716423,9999999.0,43.716423,9999999.0,-0.36002123,-0.37145096,0.04453222,-0.5039397,-0.30256683,0.9285233,-1.0099323,-0.03934796,0.082733154
18:37:00.825;0.041778345,-0.07214577,8.069164,0.49652934,-0.41404927,-0.06350958,-18.870607,-37.35656,9.082555,220.96454,0.0,0.0,0.0,0.0,1008.00995,29.6,43.716423,9999999.0,43.716423,9999999.0,-0.3596691,-0.37058148,0.044888712,-0.51225656,-0.29663613,0.94341916,-1.0223538,-0.039422195,0.06599426
18:37:00.856;0.041084122,-0.06537806,8.056574,0.25238872,-0.10887349,0.119595885,-18.868486,-37.374046,9.069244,220.97792,0.0,0.0,0.0,0.0,1008.00995,29.6,43.716423,9999999.0,43.716423,9999999.0,-0.36455357,-0.36652005,0.043051526,-0.46493164,-0.292165,0.9514956,-1.0258378,-0.0414545,0.052612305
18:37:00.887;0.048190188,-0.059963897,8.061824,0.37445903,-0.3530141,-0.06350958,-18.866789,-37.369637,9.058596,220.97728,0.0,0.0,0.0,0.0,1008.00995,29.6,43.716423,9999999.0,43.716423,9999999.0,-0.3563366,-0.36678398,0.046888884,-0.4261509,-0.3424765,0.96310383,-1.0367812,-0.03774703,0.053253174
18:37:00.917;0.046213597,-0.06329401,8.066024,0.19135356,-0.41404927,-0.06350958,-18.86543,-37.366108,9.0500765,220.97676,0.0,0.0,0.0,0.0,1007.92,29.6,44.46947,9999999.0,44.46947,9999999.0,-0.36281416,-0.3742961,0.045159362,-0.44958282,-0.3282576,0.9688444,-1.0492027,-0.039652318,0.053771973
18:37:00.948;0.044632323,-0.05829665,8.061723,0.31342387,-0.29197896,-0.1855799,-18.864346,-37.363285,9.043262,220.97635,0.0,0.0,0.0,0.0,1007.92,29.5,44.46947,9999999.0,44.46947,9999999.0,-0.36557454,-0.3734773,0.043410435,-0.4143088,-0.31719658,0.97856057,-1.058254,-0.041621115,0.05418396
18:37:00.976;0.035705857,-0.054298766,8.05062,0.31342387,-0.47508442,0.119595885,-18.863476,-37.34263,9.037809,220.96466,0.0,0.0,0.0,0.0,1007.86,29.6,44.9715,9999999.0,44.9715,9999999.0,-0.36513603,-0.37595183,0.038767356,-0.3864314,-0.254109,0.98733646,-1.0715563,-0.04681735,0.06587219
18:37:01.005;0.03622613,-0.05110046,8.049399,0.19135356,-0.41404927,-0.12454474,-18.862782,-37.326103,9.033447,220.9553,0.0,0.0,0.0,0.0,1007.95996,29.6,44.1339,9999999.0,44.1339,9999999.0,-0.37026903,-0.37978795,0.042895436,-0.36372548,-0.25785136,0.9928857,-1.0835638,-0.043349072,0.07522583
18:37:01.040;0.028980905,-0.06386471,8.0637455,0.31342387,-0.59715474,0.2416662,-18.862225,-37.331284,9.048358,220.95918,0.0,0.0,0.0,0.0,1007.92,29.6,44.46947,9999999.0,44.46947,9999999.0,-0.37051713,-0.38770744,0.039192647,-0.45376906,-0.20591229,1.0038556,-1.1044642,-0.04770814,0.0713501
18:37:01.070;0.03084617,-0.05875321,8.067561,0.37445903,-0.41404927,0.05856073,-18.86178,-37.335426,9.0602865,220.96228,0.0,0.0,0.0,0.0,1007.89996,29.6,44.635933,9999999.0,44.635933,9999999.0,-0.3772893,-0.38629782,0.04687883,-0.4172546,-0.21906246,1.0150894,-1.1168857,-0.040458154,0.06825256
18:37:01.102;0.03233838,-0.06232546,8.070614,0.19135356,-0.29197896,-0.0024744272,-18.879824,-37.33874,9.05143,220.94228,0.0,0.0,0.0,0.0,1007.95996,29.6,44.1339,9999999.0,44.1339,9999999.0,-0.38160762,-0.38743722,0.049485464,-0.44245532,-0.22957207,1.0210214,-1.125937,-0.03864277,0.088256836
18:37:01.133;0.025870705,-0.049860366,8.073056,0.31342387,-0.3530141,-0.0024744272,-18.894258,-37.341393,9.044344,220.92628,0.0,0.0,0.0,0.0,1007.89996,29.6,44.635933,9999999.0,44.635933,9999999.0,-0.37724388,-0.38409567,0.05050554,-0.35386074,-0.18360443,1.0307375,-1.1368804,-0.03871948,0.10424805
18:37:01.163;0.028358009,-0.055211183,8.0673485,0.43549418,-0.2309438,-0.0024744272,-18.905807,-37.343513,9.038675,220.91348,0.0,0.0,0.0,0.0,1007.83997,29.5,45.137966,9999999.0,45.137966,9999999.0,-0.37102565,-0.3746492,0.051761262,-0.39211133,-0.20139821,1.0442379,-1.1440396,-0.038796186,0.11705017
18:37:01.195;0.030347852,-0.059491836,8.062782,0.37445903,-0.3530141,-0.06350958,-18.915047,-37.34521,9.034141,220.90324,0.0,0.0,0.0,0.0,1007.92,29.6,44.46947,9999999.0,44.46947,9999999.0,-0.3638682,-0.3719744,0.053194214,-0.42275047,-0.21565115,1.0562205,-1.1553361,-0.038875367,0.12728882
18:37:01.229;0.039601173,-0.055254914,8.074452,0.37445903,-0.47508442,-0.0024744272,-18.904037,-37.34657,9.030513,220.91753,0.0,0.0,0.0,0.0,1007.89996,29.6,44.635933,9999999.0,44.635933,9999999.0,-0.3598994,-0.3741512,0.05227432,-0.39207438,-0.28099847,1.0689521,-1.171489,-0.041034695,0.11300659
18:37:01.260;0.039342385,-0.059526823,8.060804,0.49652934,-0.41404927,-0.0024744272,-18.89523,-37.347656,9.027611,220.92897,0.0,0.0,0.0,0.0,1007.95996,29.6,44.1339,9999999.0,44.1339,9999999.0,-0.3600456,-0.3710162,0.053184908,-0.42310086,-0.2796338,1.0843445,-1.1843245,-0.041111402,0.1015625
18:37:01.303;0.03913535,-0.06294435,8.049886,0.25238872,-0.3530141,0.05856073,-18.869783,-37.330124,9.025289,220.94922,0.0,0.0,0.0,0.0,1007.95996,29.6,44.1339,9999999.0,44.1339,9999999.0,-0.3621675,-0.375025,0.053645644,-0.44799763,-0.27853864,1.0949448,-1.199151,-0.041215327,0.08131409
18:37:01.408;0.038969725,-0.06567837,8.041151,0.43549418,-0.47508442,-0.12454474,-18.867826,-37.3345,9.023431,220.95432,0.0,0.0,0.0,0.0,1007.89996,29.6,44.635933,9999999.0,44.635933,9999999.0,-0.33164462,-0.37991673,0.060180373,-0.46796358,-0.27766034,1.1411072,-1.2495099,-0.03500789,0.07621765
18:37:01.750;0.038837224,-0.06786559,8.057147,0.1303184,-0.2309438,-0.12454474,-18.86626,-37.338,9.021945,220.95839,0.0,0.0,0.0,0.0,1007.89996,29.5,44.635933,9999999.0,44.635933,9999999.0,-0.3382926,-0.4144532,0.01867722,-0.48258704,-0.27616635,1.1856761,-1.3284928,-0.07760219,0.072143555
18:37:01.802;0.038731225,-0.069615364,8.062283,0.43549418,-0.29197896,-0.0024744272,-18.86501,-37.3408,9.002356,220.96165,0.0,0.0,0.0,0.0,1007.98,29.5,43.967438,9999999.0,43.967438,9999999.0,-0.39386562,-0.40637228,0.013334438,-0.49471366,-0.2752367,1.2083218,-1.3436756,-0.08407852,0.068878174
18:37:01.834;0.04630787,-0.06335374,8.066391,0.19135356,-0.41404927,-0.0024744272,-18.845608,-37.34304,8.968285,220.98676,0.0,0.0,0.0,0.0,1007.86,29.5,44.9715,9999999.0,44.9715,9999999.0,-0.40124375,-0.41278172,0.0138657,-0.44998655,-0.3289122,1.2144451,-1.3569252,-0.084157705,0.043777466
18:37:01.850;0.04470774,-0.066005886,8.069677,0.25238872,-0.2309438,-0.0024744272,-18.830086,-37.344833,8.941028,221.00685,0.0,0.0,0.0,0.0,1007.89996,29.6,44.635933,9999999.0,44.635933,9999999.0,-0.41018865,-0.4117281,0.014025645,-0.4686329,-0.31741703,1.218231,-1.3603894,-0.084194824,0.02368164
18:37:01.928;0.03576619,-0.0681276,8.064646,0.43549418,-0.3530141,0.05856073,-18.83607,-37.327866,8.937622,220.98906,0.0,0.0,0.0,0.0,1008.00995,29.6,43.716423,9999999.0,43.716423,9999999.0,-0.3798844,-0.40435296,0.014385454,-0.48400053,-0.25409243,1.2521995,-1.3879244,-0.08438783,0.04147339
18:37:01.962;0.0362744,-0.062163528,8.068281,0.1303184,-0.2309438,-0.0024744272,-18.840855,-37.314293,8.953298,220.97482,0.0,0.0,0.0,0.0,1007.83997,29.6,45.137966,9999999.0,45.137966,9999999.0,-0.40062463,-0.40568528,0.017220573,-0.44143248,-0.25758824,1.2567607,-1.3960074,-0.08233821,0.05570984
18:37:02.001;0.036680967,-0.06505372,8.063528,0.25238872,-0.29197896,-0.06350958,-18.844685,-37.303436,8.965838,220.96342,0.0,0.0,0.0,0.0,1007.92,29.6,44.46947,9999999.0,44.46947,9999999.0,-0.3971698,-0.40559837,0.018123753,-0.46222743,-0.26062807,1.2666038,-1.4073946,-0.08243471,0.067108154
18:37:02.030;0.037006218,-0.05970442,8.059726,0.19135356,-0.3530141,-0.06350958,-18.847748,-37.29475,8.975871,220.95432,0.0,0.0,0.0,0.0,1007.86,29.5,44.9715,9999999.0,44.9715,9999999.0,-0.40053654,-0.40781975,0.017480688,-0.42442048,-0.2630644,1.2721531,-1.4176321,-0.08427648,0.07621765
18:37:02.058;0.03726642,-0.05542498,8.0566845,0.43549418,-0.16990864,-0.0024744272,-18.850199,-37.2878,8.983897,220.947,0.0,0.0,0.0,0.0,1007.89996,29.6,44.635933,9999999.0,44.635933,9999999.0,-0.39559639,-0.39764702,0.017058901,-0.39414892,-0.26501507,1.2843469,-1.4223895,-0.08605475,0.08352661
18:37:02.088;0.03747458,-0.059662875,8.077235,0.37445903,-0.2309438,-0.0024744272,-18.85216,-37.30064,9.008718,220.95255,0.0,0.0,0.0,0.0,1007.86,29.6,44.9715,9999999.0,44.9715,9999999.0,-0.3871491,-0.3915122,0.018204728,-0.4232057,-0.26581636,1.2955807,-1.4293178,-0.08612898,0.07798767
18:37:02.116;0.029979665,-0.055391744,8.078353,0.37445903,-0.59715474,0.119595885,-18.853727,-37.310913,9.028574,220.95699,0.0,0.0,0.0,0.0,1007.98,29.5,43.967438,9999999.0,43.967438,9999999.0,-0.38126394,-0.3942771,0.01924368,-0.3928575,-0.21262503,1.3060656,-1.4460381,-0.08619826,0.07354736
18:37:02.145;0.03164518,-0.059636287,8.071586,0.37445903,-0.59715474,-0.1855799,-18.836582,-37.30073,9.026059,220.97166,0.0,0.0,0.0,0.0,1007.86,29.6,44.9715,9999999.0,44.9715,9999999.0,-0.3842157,-0.39799502,0.023435088,-0.42331448,-0.22462456,1.3169249,-1.4633557,-0.08272998,0.05886841
18:37:02.174;0.03297759,-0.06303192,8.066172,0.43549418,-0.29197896,-0.0024744272,-18.822866,-37.292587,9.024048,220.98343,0.0,0.0,0.0,0.0,1007.95996,29.6,44.1339,9999999.0,44.1339,9999999.0,-0.3866127,-0.39186326,0.018634284,-0.44771665,-0.23423856,1.3295543,-1.4718231,-0.088111795,0.04710388
18:37:02.207;0.034043517,-0.06574842,8.054179,0.43549418,-0.6581899,-0.06350958,-18.830294,-37.28607,9.040838,220.9703,0.0,0.0,0.0,0.0,1007.89996,29.6,44.635933,9999999.0,44.635933,9999999.0,-0.37929624,-0.39783958,0.019386103,-0.46770623,-0.24216908,1.3439256,-1.4935434,-0.088193454,0.06022644
18:37:02.237;0.027234813,-0.060260184,8.052247,0.49652934,-0.47508442,0.119595885,-18.836235,-37.280857,9.054271,220.95981,0.0,0.0,0.0,0.0,1007.86,29.5,44.9715,9999999.0,44.9715,9999999.0,-0.38386023,-0.3940262,0.018545689,-0.428771,-0.1937832,1.3588215,-1.5077959,-0.09009874,0.07072449
18:37:02.273;0.02178785,-0.06353104,8.058363,0.37445903,-0.2309438,0.05856073,-18.822588,-37.276688,9.046617,220.97394,0.0,0.0,0.0,0.0,1007.83997,29.6,45.137966,9999999.0,45.137966,9999999.0,-0.38196877,-0.38557526,0.023526015,-0.45170113,-0.15490864,1.372302,-1.51611,-0.08579329,0.05659485
18:37:02.307;0.025091726,-0.05848628,8.040271,0.43549418,-0.47508442,0.119595885,-18.81167,-37.27335,9.040493,220.98524,0.0,0.0,0.0,0.0,1007.95996,29.6,44.1339,9999999.0,44.1339,9999999.0,-0.3716885,-0.38366053,0.0259125,-0.41676974,-0.17880085,1.3871088,-1.5322628,-0.08380222,0.045288086
18:37:02.357;0.027734827,-0.062111914,8.041121,0.25238872,-0.3530141,-0.06350958,-18.802937,-37.27068,9.035595,220.9943,0.0,0.0,0.0,0.0,1007.95996,29.6,44.1339,9999999.0,44.1339,9999999.0,-0.37247142,-0.38627195,0.031979244,-0.44255754,-0.19761361,1.3997283,-1.5499135,-0.07782243,0.036239624
18:37:02.368;0.029849308,-0.065012425,8.049461,0.31342387,-0.2309438,-0.12454474,-18.832748,-37.268543,9.031676,220.95645,0.0,0.0,0.0,0.0,1007.95996,29.6,44.1339,9999999.0,44.1339,9999999.0,-0.38442266,-0.38347295,0.032136656,-0.4627429,-0.2124584,1.403176,-1.5524539,-0.078521036,0.07408142
18:37:02.400;0.031540893,-0.059671387,8.063795,0.31342387,-0.2309438,-0.12454474,-18.856598,-37.266834,9.028542,220.9262,0.0,0.0,0.0,0.0,1007.95996,29.6,44.1339,9999999.0,44.1339,9999999.0,-0.374454,-0.37868932,0.029674992,-0.42397285,-0.2241006,1.4132055,-1.5598441,-0.08250647,0.1043396
18:37:02.430;0.03289416,-0.06306,8.059939,0.31342387,-0.3530141,-0.0024744272,-18.857279,-37.26547,9.044434,220.92451,0.0,0.0,0.0,0.0,1007.98,29.6,43.967438,9999999.0,43.967438,9999999.0,-0.37086612,-0.37850395,0.027540237,-0.44826242,-0.23382662,1.4226083,-1.5704346,-0.08624281,0.10601807
18:37:02.460;0.033976775,-0.065770894,8.064516,0.37445903,-0.29197896,0.05856073,-18.857822,-37.264374,9.057147,220.92317,0.0,0.0,0.0,0.0,1007.92,29.6,44.46947,9999999.0,44.46947,9999999.0,-0.3692701,-0.37529656,0.0290639,-0.46726644,-0.24138455,1.4338421,-1.579194,-0.08631704,0.10736084
18:37:02.495;0.02718142,-0.06793961,8.060516,0.43549418,-0.41404927,-0.0024744272,-18.858257,-37.2819,9.048918,220.9335,0.0,0.0,0.0,0.0,1007.86,29.6,44.9715,9999999.0,44.9715,9999999.0,-0.36293826,-0.37333968,0.032374475,-0.4829143,-0.19320343,1.4486488,-1.5932716,-0.08432598,0.09703064
18:37:02.529;0.029406581,-0.062013134,8.057317,0.37445903,-0.3530141,-0.0024744272,-18.858606,-37.295918,9.042335,220.94174,0.0,0.0,0.0,0.0,1007.95996,29.6,44.1339,9999999.0,44.1339,9999999.0,-0.36184826,-0.37090176,0.03341793,-0.4409653,-0.20910381,1.4617549,-1.6056271,-0.08441258,0.08879089
18:37:02.567;0.031186711,-0.0649334,8.062418,0.31342387,-0.2309438,0.05856073,-18.858885,-37.307133,9.073868,220.94833,0.0,0.0,0.0,0.0,1007.92,29.6,44.46947,9999999.0,44.46947,9999999.0,-0.36104056,-0.36685252,0.034301404,-0.4614374,-0.22162087,1.473665,-1.6144029,-0.08450661,0.0821991
18:37:02.601;0.032610815,-0.05960816,8.058838,0.31342387,-0.41404927,0.05856073,-18.859108,-37.316105,9.099094,220.95361,0.0,0.0,0.0,0.0,1007.89996,29.6,44.635933,9999999.0,44.635933,9999999.0,-0.35754785,-0.3688299,0.037105005,-0.4237839,-0.23184493,1.4843214,-1.6284806,-0.082515545,0.076919556
18:37:02.632;0.0337501,-0.06300942,8.071297,0.25238872,-0.2309438,0.05856073,-18.859287,-37.323284,9.119275,220.95782,0.0,0.0,0.0,0.0,1008.00995,29.6,43.716423,9999999.0,43.716423,9999999.0,-0.36297852,-0.36730018,0.03953875,-0.44727248,-0.2395734,1.491893,-1.6354089,-0.08075872,0.07270813
18:37:02.661;0.034661524,-0.06573042,8.058279,0.31342387,-0.3530141,-0.12454474,-18.85943,-37.32903,9.13542,220.96121,0.0,0.0,0.0,0.0,1008.00995,29.6,43.716423,9999999.0,43.716423,9999999.0,-0.3600863,-0.368192,0.04185607,-0.46734017,-0.2464398,1.5012958,-1.6459993,-0.079001896,0.06932068
18:37:02.688;0.035390664,-0.06790723,8.063189,0.31342387,-0.3530141,-0.06350958,-18.859545,-37.333622,9.129936,220.9639,0.0,0.0,0.0,0.0,1007.89996,29.6,44.635933,9999999.0,44.635933,9999999.0,-0.3621854,-0.36931184,0.039056197,-0.48252228,-0.2514701,1.5097582,-1.6555307,-0.082364604,0.06663513
18:37:02.729;0.035973977,-0.069648676,8.059454,0.31342387,-0.5361196,0.05856073,-18.859636,-37.3373,9.125549,220.96606,0.0,0.0,0.0,0.0,1008.00995,29.6,43.716423,9999999.0,43.716423,9999999.0,-0.35923472,-0.37870598,0.037012625,-0.49512488,-0.25573277,1.5226086,-1.6775116,-0.0849685,0.064468384
18:37:02.776;0.028779183,-0.06338038,8.048805,0.37445903,-0.59715474,-0.0024744272,-18.878109,-37.34024,9.085239,220.9453,0.0,0.0,0.0,0.0,1008.07,29.6,43.21439,9999999.0,43.21439,9999999.0,-0.36290756,-0.38725153,0.040674392,-0.4511639,-0.20485868,1.5402082,-1.7055779,-0.08221614,0.085235596
18:37:02.809;0.030684792,-0.066027194,8.063271,0.5575645,-0.41404927,0.05856073,-18.892887,-37.342594,9.052992,220.9287,0.0,0.0,0.0,0.0,1008.00995,29.6,43.716423,9999999.0,43.716423,9999999.0,-0.3714045,-0.3813216,0.04182005,-0.46916044,-0.21803084,1.5580503,-1.7188275,-0.08229533,0.10183716
18:37:02.842;0.032209277,-0.060483202,8.067182,0.1303184,-0.41404927,-0.06350958,-18.88631,-37.344475,9.045593,220.9379,0.0,0.0,0.0,0.0,1008.08997,29.6,43.047928,9999999.0,43.047928,9999999.0,-0.37794417,-0.38875648,0.04478761,-0.42956015,-0.22875324,1.562481,-1.7329051,-0.080304265,0.09263611
18:37:02.863;0.033428866,-0.06370945,8.070311,0.31342387,-0.47508442,-0.06350958,-18.881048,-37.34598,9.039675,220.94525,0.0,0.0,0.0,0.0,1007.98,29.6,43.967438,9999999.0,43.967438,9999999.0,-0.38357702,-0.39042917,0.044290457,-0.4522968,-0.237322,1.569063,-1.7428819,-0.08163796,0.08528137
18:37:02.987;0.03440454,-0.06629045,8.072813,0.25238872,-0.41404927,-0.0024744272,-18.858438,-37.347187,9.03494,220.97363,0.0,0.0,0.0,0.0,1008.00995,29.6,43.716423,9999999.0,43.716423,9999999.0,-0.36135978,-0.4093313,0.03682496,-0.47047335,-0.2441722,1.6003592,-1.794224,-0.08951315,0.056900024
18:37:03.227;0.035185076,-0.05303236,8.074816,0.37445903,-0.16990864,-0.0024744272,-18.858751,-37.34815,9.031152,220.97385,0.0,0.0,0.0,0.0,1007.95996,29.6,44.1339,9999999.0,44.1339,9999999.0,-0.32059765,-0.35914126,0.036640204,-0.3762882,-0.24965277,1.6902294,-1.8350021,-0.090107016,0.0566864
18:37:03.868;0.02814806,-0.05774878,8.061094,0.25238872,-0.29197896,-0.0024744272,-18.859001,-37.34892,9.009722,220.97401,0.0,0.0,0.0,0.0,1007.95996,29.6,44.1339,9999999.0,44.1339,9999999.0,-0.20162192,-0.38500604,0.035483383,-0.41045105,-0.20006181,1.8520106,-2.0221605,-0.091693126,0.056518555
18:37:03.880;0.030179894,-0.061521914,8.06544,0.37445903,-0.47508442,-0.0024744272,-18.859201,-37.349537,9.029377,220.97415,0.0,0.0,0.0,0.0,1008.00995,29.6,43.716423,9999999.0,43.716423,9999999.0,-0.38164294,-0.3838848,0.03587224,-0.4370317,-0.21438658,1.8565041,-2.0278616,-0.091722816,0.056381226
18:37:03.926;0.039466806,-0.056878977,8.076578,0.1303184,-0.41404927,-0.0024744272,-18.840961,-37.35003,9.026702,220.99675,0.0,0.0,0.0,0.0,1007.92,29.6,44.46947,9999999.0,44.46947,9999999.0,-0.37852988,-0.39481825,0.03572133,-0.40349174,-0.27997097,1.8623685,-2.0464938,-0.091834165,0.03378296
18:37:03.955;0.03923489,-0.06082607,8.077827,0.19135356,-0.47508442,-0.0024744272,-18.82637,-37.35042,9.024562,221.01485,0.0,0.0,0.0,0.0,1007.86,29.5,44.9715,9999999.0,44.9715,9999999.0,-0.3901121,-0.4013774,0.035250306,-0.4314242,-0.27828178,1.8679178,-2.0602713,-0.09190592,0.015686035
18:37:03.988;0.039049357,-0.056322303,8.086489,0.31342387,-0.47508442,-0.0024744272,-18.814697,-37.35074,9.02285,221.02931,0.0,0.0,0.0,0.0,1007.95996,29.6,44.1339,9999999.0,44.1339,9999999.0,-0.3911948,-0.40426853,0.034489695,-0.39905336,-0.27667037,1.8782607,-2.075949,-0.09198758,0.0012207031
18:37:04.031;0.03890093,-0.060380735,8.070433,0.31342387,-0.29197896,-0.06350958,-18.823757,-37.332592,9.03988,221.00703,0.0,0.0,0.0,0.0,1007.95996,29.6,44.1339,9999999.0,44.1339,9999999.0,-0.3912415,-0.40153012,0.034163177,-0.42865813,-0.27616605,1.8920513,-2.0887961,-0.092096455,0.023498535
18:37:04.065;0.031120744,-0.06362748,8.072911,0.37445903,-0.41404927,0.05856073,-18.831005,-37.336475,9.053504,221.00056,0.0,0.0,0.0,0.0,1007.89996,29.6,44.635933,9999999.0,44.635933,9999999.0,-0.3904209,-0.40042016,0.032025382,-0.45156989,-0.22086494,1.9044085,-2.1024597,-0.094192274,0.029968262
18:37:04.104;0.03255804,-0.05856343,8.074894,0.25238872,-0.10887349,0.05856073,-18.836803,-37.33958,9.064404,220.99539,0.0,0.0,0.0,0.0,1008.02997,29.6,43.549957,9999999.0,43.549957,9999999.0,-0.3908287,-0.39190018,0.034383275,-0.41552883,-0.23100972,1.914504,-2.1068146,-0.09184985,0.03514099
18:37:04.166;0.02604643,-0.054512188,8.07648,0.43549418,-0.29197896,0.05856073,-18.823044,-37.360466,9.054723,221.0251,0.0,0.0,0.0,0.0,1007.86,29.5,44.9715,9999999.0,44.9715,9999999.0,-0.36533573,-0.37946513,0.0373624,-0.3867099,-0.1847725,1.9415047,-2.1249173,-0.088219084,0.005432129
18:37:04.203;0.02849859,-0.051271196,8.070087,0.31342387,-0.29197896,0.119595885,-18.830435,-37.358772,9.065378,221.01501,0.0,0.0,0.0,0.0,1007.92,29.6,44.46947,9999999.0,44.46947,9999999.0,-0.36809838,-0.375084,0.03899154,-0.36400664,-0.20232856,1.952788,-2.1354284,-0.0861109,0.0155181885
18:37:04.245;0.038121764,-0.05633985,8.057312,0.25238872,-0.2309438,-0.12454474,-18.836348,-37.357418,9.073902,221.00696,0.0,0.0,0.0,0.0,1007.95996,29.6,44.1339,9999999.0,44.1339,9999999.0,-0.36495912,-0.37281343,0.043722976,-0.4006233,-0.27107632,1.9636407,-2.145359,-0.080968276,0.02357483
18:37:04.289;0.038158856,-0.06039477,8.062414,0.31342387,-0.29197896,-0.06350958,-18.841078,-37.356335,9.062322,221.0005,0.0,0.0,0.0,0.0,1007.95996,29.6,44.1339,9999999.0,44.1339,9999999.0,-0.36073315,-0.37124583,0.038200784,-0.42918435,-0.2711674,1.9771179,-2.1579142,-0.0863237,0.030029297
18:37:04.332;0.038188532,-0.06363871,8.058835,0.43549418,-0.3530141,-0.0024744272,-18.863262,-37.35547,9.071457,220.97284,0.0,0.0,0.0,0.0,1007.86,29.6,44.9715,9999999.0,44.9715,9999999.0,-0.35409117,-0.36766127,0.035852104,-0.45243672,-0.27149794,1.9962796,-2.173447,-0.08911812,0.05769348
18:37:04.355;0.030550826,-0.073895305,8.055971,0.25238872,-0.47508442,-0.06350958,-18.88101,-37.354774,9.078766,220.95073,0.0,0.0,0.0,0.0,1007.95996,29.6,44.1339,9999999.0,44.1339,9999999.0,-0.36537734,-0.3726581,0.03667778,-0.5255406,-0.21727379,2.0018322,-2.1838987,-0.08917256,0.07980347
18:37:04.390;0.024440661,-0.06677769,8.05368,0.37445903,-0.47508442,-0.06350958,-18.895208,-37.35422,9.084613,220.93304,0.0,0.0,0.0,0.0,1007.95996,29.6,44.1339,9999999.0,44.1339,9999999.0,-0.36186218,-0.37439775,0.035715614,-0.47505915,-0.17387012,2.0149384,-2.2005267,-0.09139539,0.0974884
18:37:04.441;0.019552529,-0.0610836,8.051847,0.19135356,-0.16990864,-0.06350958,-18.924967,-37.35378,9.089291,220.89644,0.0,0.0,0.0,0.0,1007.95996,29.6,44.1339,9999999.0,44.1339,9999999.0,-0.36585146,-0.36997557,0.034446735,-0.43465242,-0.13912868,2.0248888,-2.209362,-0.09469789,0.13409424
18:37:04.470;0.030964915,-0.06418977,8.050382,0.49652934,-0.3530141,-0.0024744272,-18.893574,-37.335022,9.074633,220.92317,0.0,0.0,0.0,0.0,1007.95996,29.6,44.1339,9999999.0,44.1339,9999999.0,-0.3576014,-0.3648895,0.034100078,-0.4568352,-0.22037387,2.039288,-2.2195995,-0.09653967,0.10736084
18:37:04.502;0.032433376,-0.06667471,8.064531,0.43549418,-0.2309438,0.05856073,-18.86846,-37.32002,9.062906,220.9446,0.0,0.0,0.0,0.0,1007.89996,29.6,44.635933,9999999.0,44.635933,9999999.0,-0.35340834,-0.35819095,0.03505923,-0.47368672,-0.2304191,2.0532238,-2.2269897,-0.09661885,0.0859375
18:37:04.537;0.033608146,-0.076324105,8.06819,0.1303184,-0.2309438,-0.0024744272,-18.866768,-37.326416,9.053525,220.95062,0.0,0.0,0.0,0.0,1008.00995,29.6,43.716423,9999999.0,43.716423,9999999.0,-0.357397,-0.36294353,0.037964884,-0.54199034,-0.23865424,2.057785,-2.2350729,-0.09456923,0.07991028
18:37:04.569;0.034547962,-0.06872073,8.063456,0.49652934,-0.29197896,-0.1855799,-18.865414,-37.33153,9.0460205,220.95543,0.0,0.0,0.0,0.0,1007.95996,29.6,44.1339,9999999.0,44.1339,9999999.0,-0.34987924,-0.3569476,0.038630065,-0.48828647,-0.24547397,2.073674,-2.2444162,-0.09464841,0.07510376
18:37:04.613;0.035299815,-0.06263803,8.074991,0.37445903,-0.47508442,-0.0024744272,-18.845932,-37.335625,9.040016,220.98178,0.0,0.0,0.0,0.0,1007.92,29.6,44.46947,9999999.0,44.46947,9999999.0,-0.34291756,-0.36108845,0.03101216,-0.4444325,-0.2504593,2.0897758,-2.264845,-0.10262835,0.04875183
18:37:04.668;0.035901297,-0.065433316,8.076558,0.37445903,-0.2309438,-0.06350958,-18.848745,-37.3389,9.035213,220.98036,0.0,0.0,0.0,0.0,1007.89996,29.6,44.635933,9999999.0,44.635933,9999999.0,-0.34259984,-0.3535156,0.03125954,-0.4641747,-0.25467676,2.1107454,-2.2777777,-0.102766916,0.0501709
18:37:04.741;0.03638248,-0.060008097,8.077811,0.31342387,-0.10887349,-0.24661505,-18.832596,-37.32312,9.031371,220.99039,0.0,0.0,0.0,0.0,1007.89996,29.6,44.635933,9999999.0,44.635933,9999999.0,-0.33253542,-0.33883455,0.02689379,-0.42562428,-0.25805146,2.1336253,-2.2857254,-0.107403114,0.040145874
18:37:04.781;0.03676743,-0.06332937,8.071153,0.19135356,-0.29197896,-0.24661505,-18.819677,-37.310497,9.028297,220.9984,0.0,0.0,0.0,0.0,1007.83997,29.6,45.137966,9999999.0,45.137966,9999999.0,-0.33354783,-0.34354237,0.017331306,-0.44955084,-0.26099607,2.1412795,-2.2974045,-0.11726771,0.03213501
18:37:05.275;0.03707539,-0.06598639,8.073487,0.31342387,-0.2309438,-0.12454474,-18.846142,-37.318798,9.025838,220.97113,0.0,0.0,0.0,0.0,1007.92,29.6,44.46947,9999999.0,44.46947,9999999.0,-0.19430226,-0.30748284,-0.10121855,-0.46827564,-0.26310533,2.2961109,-2.4114907,-0.23909554,0.059402466
18:37:05.357;0.037321758,-0.07577345,8.067694,0.37445903,-0.3530141,-0.06350958,-18.867313,-37.307037,9.00547,220.93797,0.0,0.0,0.0,0.0,1008.00995,29.6,43.716423,9999999.0,43.716423,9999999.0,-0.2820039,-0.31003284,-0.1073514,-0.5381122,-0.265041,2.3268166,-2.4404378,-0.24930821,0.092559814
18:37:05.365;0.03751885,-0.08360309,8.086042,0.49652934,-0.47508442,-0.0024744272,-18.88425,-37.29763,8.989176,220.91144,0.0,0.0,0.0,0.0,1008.00995,29.6,43.716423,9999999.0,43.716423,9999999.0,-0.31227326,-0.31460354,-0.10325816,-0.5923642,-0.26583356,2.3302922,-2.4437635,-0.24975277,0.11909485
18:37:05.411;0.04533797,-0.08220536,8.077738,0.25238872,-0.2309438,-0.1855799,-18.861,-37.308506,8.994541,220.9466,0.0,0.0,0.0,0.0,1007.92,29.6,44.46947,9999999.0,44.46947,9999999.0,-0.30834758,-0.31924918,-0.0996282,-0.5830572,-0.32156438,2.3421545,-2.4546177,-0.24986908,0.0839386
18:37:05.481;0.036270376,-0.08108718,8.071094,0.19135356,-0.29197896,-0.06350958,-18.8424,-37.317204,8.998833,220.97473,0.0,0.0,0.0,0.0,1007.89996,29.6,44.635933,9999999.0,44.635933,9999999.0,-0.31124943,-0.33020347,-0.1092504,-0.57560354,-0.25746456,2.3555493,-2.4750562,-0.26285967,0.05580139
18:37:05.534;0.036677748,-0.072531186,8.07344,0.25238872,-0.41404927,-0.12454474,-18.84592,-37.32416,8.983866,220.97472,0.0,0.0,0.0,0.0,1007.92,29.6,44.46947,9999999.0,44.46947,9999999.0,-0.32078478,-0.34108046,-0.109247744,-0.5147219,-0.26028323,2.368926,-2.4970007,-0.26622567,0.05581665
18:37:05.558;0.037003644,-0.07334784,8.067656,0.31342387,-0.2309438,0.18063104,-18.848736,-37.32973,8.990293,220.97472,0.0,0.0,0.0,0.0,1007.92,29.6,44.46947,9999999.0,44.46947,9999999.0,-0.3376121,-0.341321,-0.108753696,-0.52089006,-0.2627839,2.3761349,-2.5023124,-0.2690902,0.05581665
18:37:05.633;0.037264362,-0.0816626,8.063028,0.25238872,-0.16990864,-0.0024744272,-18.850988,-37.334187,8.995434,220.97472,0.0,0.0,0.0,0.0,1007.86,29.6,44.9715,9999999.0,44.9715,9999999.0,-0.32730198,-0.33870643,-0.09200889,-0.5802674,-0.26478463,2.3953164,-2.5152254,-0.25536224,0.05581665
18:37:05.993;0.037472934,-0.07299153,8.066988,0.31342387,-0.3530141,-0.06350958,-18.85279,-37.31935,8.999547,220.96335,0.0,0.0,0.0,0.0,1007.89996,29.6,44.635933,9999999.0,44.635933,9999999.0,-0.23172441,-0.35695606,-0.089698,-0.5184026,-0.2661387,2.508149,-2.6423106,-0.25625303,0.06718445
18:37:06.023;0.037639793,-0.07371611,8.062494,0.31342387,-0.04783833,-0.1855799,-18.872633,-37.30748,9.002838,220.93173,0.0,0.0,0.0,0.0,1007.83997,29.6,45.137966,9999999.0,45.137966,9999999.0,-0.35292202,-0.35233822,-0.087421775,-0.5238402,-0.2674725,2.515671,-2.6434588,-0.25777727,0.09880066
18:37:06.066;0.030111834,-0.058972888,8.058899,0.43549418,-0.29197896,-0.0024744272,-18.851707,-37.316383,9.02387,220.96283,0.0,0.0,0.0,0.0,1008.02997,29.6,43.549957,9999999.0,43.549957,9999999.0,-0.33276436,-0.34441146,-0.09323083,-0.41926494,-0.21407723,2.5370102,-2.6577659,-0.26687068,0.06770325
18:37:06.195;0.039412357,-0.0625012,8.063684,0.37445903,-0.41404927,-0.0024744272,-18.834967,-37.305107,9.022297,220.97635,0.0,0.0,0.0,0.0,1007.92,29.6,44.46947,9999999.0,44.46947,9999999.0,-0.29906577,-0.35102916,-0.09059535,-0.4440824,-0.28003028,2.5853155,-2.7111783,-0.2671899,0.05418396
18:37:06.250;0.03919133,-0.057662405,8.059851,0.31342387,-0.2309438,-0.12454474,-18.821573,-37.296085,9.021038,220.98717,0.0,0.0,0.0,0.0,1007.98,29.6,43.967438,9999999.0,43.967438,9999999.0,-0.335313,-0.34662646,-0.08804951,-0.40989804,-0.2785936,2.6025538,-2.7238803,-0.267326,0.04336548
18:37:06.274;0.03901451,-0.05379137,8.056784,0.49652934,-0.29197896,-0.0024744272,-18.81086,-37.30727,9.020031,221.0072,0.0,0.0,0.0,0.0,1007.95996,29.6,44.1339,9999999.0,44.1339,9999999.0,-0.3361527,-0.3415597,-0.08862915,-0.3825269,-0.27744317,2.613974,-2.7305958,-0.27019054,0.023330688
18:37:06.325;0.0465345,-0.05069454,8.061992,0.49652934,-0.29197896,-0.0024744272,-18.820688,-37.297817,9.037624,220.98933,0.0,0.0,0.0,0.0,1007.89996,29.6,44.635933,9999999.0,44.635933,9999999.0,-0.31663078,-0.33179155,-0.08615869,-0.36027035,-0.3307059,2.6397936,-2.7457788,-0.2703192,0.04119873
18:37:06.359;0.044889048,-0.055878524,8.066158,0.61859965,-0.3530141,-0.0024744272,-18.82855,-37.290253,9.0517,220.97502,0.0,0.0,0.0,0.0,1007.92,29.6,44.46947,9999999.0,44.46947,9999999.0,-0.31308833,-0.32461995,-0.08340532,-0.3969055,-0.3188463,2.6602075,-2.7574282,-0.27040085,0.055511475
18:37:06.394;0.043572683,-0.052364264,8.069491,0.61859965,-0.29197896,0.05856073,-18.83484,-37.3026,9.0445595,220.97496,0.0,0.0,0.0,0.0,1007.89996,29.6,44.635933,9999999.0,44.635933,9999999.0,-0.3037392,-0.3141528,-0.08071307,-0.37179115,-0.30936944,2.682477,-2.7679393,-0.27048993,0.05557251
18:37:06.440;0.04251959,-0.0572143,8.07982,0.31342387,-0.5361196,-0.0024744272,-18.821472,-37.31248,9.057247,220.99742,0.0,0.0,0.0,0.0,1007.92,29.6,44.46947,9999999.0,44.46947,9999999.0,-0.30185473,-0.32601604,-0.075796664,-0.4057068,-0.30150545,2.6968944,-2.7926009,-0.26779613,0.033111572
18:37:06.481;0.041677117,-0.061094332,8.07276,0.74066997,-0.6581899,-0.12454474,-18.810778,-37.320385,9.067398,221.0154,0.0,0.0,0.0,0.0,1007.89996,29.6,44.635933,9999999.0,44.635933,9999999.0,-0.29840758,-0.32480127,-0.07407743,-0.4335982,-0.29578897,2.7272618,-2.8195868,-0.26789758,0.015136719
18:37:06.521;0.041003138,-0.06419836,8.074773,0.6796348,-0.41404927,-0.12454474,-18.820621,-37.32671,9.057118,221.00725,0.0,0.0,0.0,0.0,1007.95996,29.6,44.1339,9999999.0,44.1339,9999999.0,-0.3021059,-0.31730163,-0.07689028,-0.45551378,-0.2909323,2.753088,-2.8353207,-0.27275482,0.023284912
18:37:06.552;0.040463954,-0.05902013,8.06106,0.31342387,-0.3530141,0.05856073,-18.828497,-37.331768,9.048895,221.00073,0.0,0.0,0.0,0.0,1007.92,29.6,44.46947,9999999.0,44.46947,9999999.0,-0.3092092,-0.32019344,-0.078662194,-0.41948596,-0.28759643,2.763431,-2.84697,-0.27674025,0.029800415
18:37:06.581;0.04003261,-0.062539,8.0654125,0.19135356,-0.41404927,-0.0024744272,-18.816399,-37.317413,9.042316,221.00668,0.0,0.0,0.0,0.0,1007.98,29.6,43.967438,9999999.0,43.967438,9999999.0,-0.31742397,-0.32812452,-0.07500506,-0.4442556,-0.28437626,2.768789,-2.8585634,-0.27510056,0.023849487
18:37:06.620;0.039687533,-0.057692643,8.068895,0.25238872,-0.41404927,0.18063104,-18.806719,-37.30593,9.037053,221.01144,0.0,0.0,0.0,0.0,1007.98,29.6,43.967438,9999999.0,43.967438,9999999.0,-0.32010877,-0.33516765,-0.07321776,-0.4096532,-0.2818046,2.7786322,-2.8747113,-0.27519706,0.019088745
18:37:06.692;0.03941147,-0.05381556,8.071681,0.43549418,-0.29197896,-0.06350958,-18.817375,-37.315144,9.032843,221.00409,0.0,0.0,0.0,0.0,1007.95996,29.6,44.1339,9999999.0,44.1339,9999999.0,-0.3049489,-0.3253331,-0.05830219,-0.38199255,-0.27974877,2.8104231,-2.8960257,-0.262011,0.026443481
18:37:06.815;0.03919062,-0.050713893,8.066248,0.31342387,-0.29197896,0.05856073,-18.8443,-37.322514,9.029474,220.9757,0.0,0.0,0.0,0.0,1007.95996,29.6,44.1339,9999999.0,44.1339,9999999.0,-0.2882507,-0.3232482,-0.06369479,-0.36021945,-0.27836922,2.8489742,-2.9319391,-0.26982266,0.054840088
18:37:07.062;0.03901394,-0.055894006,8.077225,0.31342387,-0.3530141,-0.12454474,-18.847439,-37.310013,9.026779,220.96413,0.0,0.0,0.0,0.0,1007.8,29.6,45.473534,9999999.0,45.473534,9999999.0,-0.24884532,-0.33485377,-0.046917565,-0.39647308,-0.27673656,2.92639,-3.0191336,-0.25535816,0.06640625
18:37:07.093;0.0388726,-0.060038097,8.063022,0.31342387,-0.5361196,0.05856073,-18.84995,-37.31841,9.024624,220.96623,0.0,0.0,0.0,0.0,1008.00995,29.6,43.716423,9999999.0,43.716423,9999999.0,-0.3271672,-0.34243557,-0.048476875,-0.42661747,-0.27621865,2.936106,-3.0357533,-0.25921905,0.06430054
18:37:07.152;0.038759526,-0.055691924,8.05166,0.37445903,-0.29197896,0.05856073,-18.851961,-37.325127,9.0229,220.96793,0.0,0.0,0.0,0.0,1007.95996,29.6,44.1339,9999999.0,44.1339,9999999.0,-0.3218615,-0.3378226,-0.04286922,-0.396294,-0.27580488,2.958199,-3.05298,-0.25576398,0.06260681
18:37:07.254;0.04633051,-0.05987643,8.057893,0.49652934,-0.3530141,-0.24661505,-18.853569,-37.3305,9.02152,220.96928,0.0,0.0,0.0,0.0,1007.83997,29.6,45.137966,9999999.0,45.137966,9999999.0,-0.2899478,-0.32602456,-0.03493313,-0.42573747,-0.32942113,3.008845,-3.0889874,-0.24979079,0.06124878
18:37:07.282;0.0523873,-0.07088548,8.055218,0.31342387,-0.41404927,0.05856073,-18.873255,-37.353203,8.983616,220.95923,0.0,0.0,0.0,0.0,1007.86,29.6,44.9715,9999999.0,44.9715,9999999.0,-0.32098725,-0.33338112,-0.0395755,-0.5041761,-0.3726048,3.017621,-3.1005807,-0.25669602,0.07130432
18:37:07.320;0.04190984,-0.056708384,8.053078,0.25238872,-0.3530141,-0.12454474,-18.870604,-37.352962,8.990093,220.96233,0.0,0.0,0.0,0.0,1007.95996,29.6,44.1339,9999999.0,44.1339,9999999.0,-0.32538363,-0.33798558,-0.035239056,-0.40345487,-0.2981687,3.027212,-3.1139953,-0.2544707,0.06820679
18:37:07.367;0.033527873,-0.05302815,8.059027,0.5575645,-0.3530141,-0.06350958,-18.868483,-37.35277,8.995275,220.9648,0.0,0.0,0.0,0.0,1007.95996,29.6,44.1339,9999999.0,44.1339,9999999.0,-0.31308433,-0.3278497,-0.03895611,-0.3769958,-0.23836042,3.0534174,-3.1305869,-0.2603243,0.06573486
18:37:07.406;0.04214519,-0.057745412,8.048464,0.43549418,-0.3530141,0.05856073,-18.848387,-37.35262,8.98102,220.98927,0.0,0.0,0.0,0.0,1007.98,29.6,43.967438,9999999.0,43.967438,9999999.0,-0.31286946,-0.32610455,-0.039779134,-0.41106805,-0.30001467,3.0704017,-3.1443543,-0.26280117,0.041259766
18:37:07.456;0.041377597,-0.053857774,8.047674,0.1303184,-0.3530141,-0.06350958,-18.85071,-37.352497,8.988016,220.98636,0.0,0.0,0.0,0.0,1007.86,29.6,44.9715,9999999.0,44.9715,9999999.0,-0.3208655,-0.33763748,-0.035230592,-0.38343206,-0.29458046,3.0769176,-3.162005,-0.25987312,0.044174194
18:37:07.489;0.040763523,-0.050747663,8.054705,0.1303184,-0.3530141,0.05856073,-18.852568,-37.352398,8.993613,220.98402,0.0,0.0,0.0,0.0,1007.92,29.6,44.46947,9999999.0,44.46947,9999999.0,-0.33401746,-0.3445527,-0.035649706,-0.3609755,-0.2899562,3.0810878,-3.1736543,-0.26196894,0.04650879
18:37:07.530;0.040272266,-0.048259575,8.052668,0.25238872,-0.10887349,-0.06350958,-18.854053,-37.352318,8.998091,220.98216,0.0,0.0,0.0,0.0,1007.92,29.6,44.46947,9999999.0,44.46947,9999999.0,-0.33414063,-0.33756307,-0.031616334,-0.34336475,-0.28653488,3.0916882,-3.1781182,-0.25956795,0.04837036
18:37:07.912;0.03987926,-0.05393055,8.051038,0.37445903,-0.3530141,-0.24661505,-18.836843,-37.352253,9.001673,221.00316,0.0,0.0,0.0,0.0,1007.95996,29.6,44.1339,9999999.0,44.1339,9999999.0,-0.1986721,-0.33218294,-0.054149732,-0.38379014,-0.28379488,3.234357,-3.3126166,-0.2837651,0.027374268
18:37:11.251;0.03190341,-0.050805885,8.072718,0.25238872,-0.47508442,-0.1855799,-18.841475,-37.3338,9.004539,220.98611,0.0,0.0,0.0,0.0,1007.98,29.6,43.967438,9999999.0,43.967438,9999999.0,0.49312043,-1.0758513,-0.8591571,-0.3605851,-0.22642745,4.077083,-4.8989234,-1.1072128,0.044418335
18:37:11.311;0.03318417,-0.048306152,8.074739,0.49652934,-0.41404927,-0.06350958,-18.84518,-37.30064,9.006831,220.96109,0.0,0.0,0.0,0.0,1007.92,29.5,44.46947,9999999.0,44.46947,9999999.0,-1.0319935,-1.0404088,-0.85149723,-0.3427581,-0.23545876,4.106875,-4.923766,-1.1183475,0.06944275
18:37:11.377;0.034208782,-0.05396781,8.076357,0.06928325,-0.29197896,0.05856073,-18.848145,-37.29251,9.008665,220.95244,0.0,0.0,0.0,0.0,1007.98,29.5,43.967438,9999999.0,43.967438,9999999.0,-1.0227765,-1.0260599,-0.83701324,-0.38285258,-0.24267913,4.111448,-4.9430366,-1.1225392,0.07809448
18:37:11.903;0.035028473,-0.050835695,8.07765,0.43549418,-0.29197896,-0.0024744272,-18.850515,-37.30441,9.010132,220.9569,0.0,0.0,0.0,0.0,1007.92,29.5,44.46947,9999999.0,44.46947,9999999.0,-0.7878349,-0.9278428,-0.788556,-0.36057577,-0.24845485,4.3409534,-5.0969095,-1.0916777,0.073638916
18:37:12.001;0.035684224,-0.04833,8.071024,0.25238872,-0.29197896,0.05856073,-18.834013,-37.313927,9.029705,220.98297,0.0,0.0,0.0,0.0,1007.83997,29.5,45.137966,9999999.0,45.137966,9999999.0,-0.8919082,-0.907178,-0.77207124,-0.34308472,-0.25331426,4.3656874,-5.1255236,-1.0919201,0.047561646
18:37:12.101;0.036208823,-0.053986892,8.058062,0.31342387,-0.16990864,-0.1855799,-18.82081,-37.32154,9.045364,221.00383,0.0,0.0,0.0,0.0,1007.86,29.6,44.9715,9999999.0,44.9715,9999999.0,-0.86599606,-0.8704762,-0.7503568,-0.383857,-0.25745052,4.39703,-5.142514,-1.0860641,0.02670288
18:37:12.125;0.036628503,-0.058512405,8.055353,0.19135356,-0.3530141,0.119595885,-18.847048,-37.327633,9.057892,220.97548,0.0,0.0,0.0,0.0,1007.95996,29.6,44.1339,9999999.0,44.1339,9999999.0,-0.857077,-0.85310286,-0.7384316,-0.41617295,-0.26052102,4.401431,-5.1506333,-1.0903324,0.05505371
18:37:12.214;0.029302802,-0.05447137,8.060847,0.43549418,-0.10887349,0.05856073,-18.849638,-37.314106,9.067913,220.96396,0.0,0.0,0.0,0.0,1007.95996,29.6,44.1339,9999999.0,44.1339,9999999.0,-0.8058004,-0.80334586,-0.7119003,-0.38716915,-0.20827602,4.44019,-5.160323,-1.0796883,0.0665741
18:37:12.265;0.031103687,-0.043577097,8.057581,0.25238872,-0.3530141,-0.1855799,-18.851711,-37.303284,9.075931,220.95474,0.0,0.0,0.0,0.0,1007.95996,29.6,44.1339,9999999.0,44.1339,9999999.0,-0.78061444,-0.7874151,-0.69316226,-0.30986235,-0.2211675,4.453314,-5.17868,-1.0766431,0.075790405
18:37:12.332;0.032544397,-0.042523123,8.06263,0.37445903,-0.47508442,-0.12454474,-18.834969,-37.313026,9.063945,220.98125,0.0,0.0,0.0,0.0,1007.92,29.5,44.46947,9999999.0,44.46947,9999999.0,-0.7531234,-0.7738803,-0.6904984,-0.30217847,-0.23126704,4.4784026,-5.2105107,-1.089077,0.04928589
18:37:12.450;0.033696964,-0.041679945,8.059008,0.43549418,-0.16990864,-0.06350958,-18.821575,-37.30242,9.072756,220.99109,0.0,0.0,0.0,0.0,1007.86,29.6,44.9715,9999999.0,44.9715,9999999.0,-0.7148221,-0.7246322,-0.6900579,-0.2963197,-0.23956507,4.52892,-5.2302203,-1.1035242,0.03944397
18:37:12.481;0.026957572,-0.041005403,8.063771,0.25238872,-0.16990864,-0.1855799,-18.82926,-37.312336,9.079804,220.98781,0.0,0.0,0.0,0.0,1007.95996,29.6,44.1339,9999999.0,44.1339,9999999.0,-0.70805174,-0.70304984,-0.67739385,-0.2913529,-0.19153933,4.536997,-5.235657,-1.1055565,0.04272461
18:37:12.529;0.029227503,-0.04046577,8.067582,0.43549418,-0.2309438,-0.12454474,-18.835407,-37.32027,9.0854435,220.98518,0.0,0.0,0.0,0.0,1007.92,29.5,44.46947,9999999.0,44.46947,9999999.0,-0.6738241,-0.6755889,-0.6718505,-0.28738263,-0.20756952,4.5583363,-5.2469735,-1.1146499,0.04534912
18:37:12.576;0.031043448,-0.032372616,8.062969,0.31342387,-0.3530141,0.18063104,-18.840326,-37.32662,9.053155,220.98308,0.0,0.0,0.0,0.0,1008.00995,29.6,43.716423,9999999.0,43.716423,9999999.0,-0.6522416,-0.6598685,-0.6632009,-0.23003815,-0.22059311,4.573067,-5.263565,-1.1205035,0.047454834
18:37:12.611;0.032496203,-0.03355954,8.0592785,0.37445903,-0.41404927,0.119595885,-18.825861,-37.313293,9.027324,220.99255,0.0,0.0,0.0,0.0,1007.89996,29.6,44.635933,9999999.0,44.635933,9999999.0,-0.6389658,-0.644603,-0.6431587,-0.2385813,-0.2310218,4.5857987,-5.2776427,-1.1143621,0.037979126
18:37:14.169;0.033658408,-0.04217052,8.063988,0.43549418,-0.29197896,-0.0024744272,-18.83269,-37.321033,9.025059,220.98898,0.0,0.0,0.0,0.0,1007.98,29.6,43.967438,9999999.0,43.967438,9999999.0,-0.47125754,-0.5782096,-0.58375496,-0.2996222,-0.23914312,4.7556415,-5.3915143,-1.0677197,0.041549683
18:37:14.473;0.034588173,-0.041397862,8.060094,0.25238872,-0.16990864,-0.12454474,-18.838152,-37.308826,9.041647,220.97475,0.0,0.0,0.0,0.0,1007.92,29.6,44.46947,9999999.0,44.46947,9999999.0,-0.208445,-0.45429686,-0.57453364,-0.2942745,-0.24586786,5.1271577,-5.6416197,-1.071362,0.055786133
18:37:14.512;0.04299343,-0.04844118,8.056978,0.43549418,-0.16990864,-0.12454474,-18.824121,-37.29906,9.054917,220.98589,0.0,0.0,0.0,0.0,1007.95996,29.6,44.1339,9999999.0,44.1339,9999999.0,-0.435029,-0.43910348,-0.5670322,-0.34447184,-0.30573177,5.1445775,-5.648416,-1.0763438,0.044647217
18:37:14.532;0.049717635,-0.04641439,8.062147,0.43549418,-0.2309438,0.05856073,-18.812897,-37.29125,9.065534,220.99481,0.0,0.0,0.0,0.0,1007.86,29.5,44.9715,9999999.0,44.9715,9999999.0,-0.42838266,-0.43140796,-0.5574182,-0.3298462,-0.35332116,5.1532874,-5.6530347,-1.0788347,0.035720825
18:37:14.867;0.047435552,-0.052454405,8.066282,0.31342387,-0.10887349,-0.0024744272,-18.822317,-37.3034,9.055627,220.99078,0.0,0.0,0.0,0.0,1007.89996,29.6,44.635933,9999999.0,44.635933,9999999.0,-0.3273343,-0.3632694,-0.52624935,-0.3725783,-0.33692947,5.2582846,-5.6895075,-1.0592169,0.039749146
18:37:15.199;0.045609888,-0.057286415,8.069591,0.43549418,-0.10887349,-0.1855799,-18.829853,-37.29472,9.029302,220.9762,0.0,0.0,0.0,0.0,1007.89996,29.6,44.635933,9999999.0,44.635933,9999999.0,-0.22244626,-0.25989696,-0.5154428,-0.4067322,-0.32382813,5.4028687,-5.7256536,-1.0600383,0.054336548
18:37:15.242;0.03648791,-0.05349058,8.049253,0.25238872,-0.3530141,-0.24661505,-18.817482,-37.306175,9.026642,220.99841,0.0,0.0,0.0,0.0,1007.83997,29.6,45.137966,9999999.0,45.137966,9999999.0,-0.2519256,-0.26661152,-0.51213,-0.38074437,-0.25971884,5.413469,-5.7404804,-1.0678327,0.03211975
18:37:15.339;0.044513218,-0.0657768,8.055967,0.25238872,-0.41404927,0.119595885,-18.825985,-37.29694,9.006113,220.9823,0.0,0.0,0.0,0.0,1008.02997,29.6,43.549957,9999999.0,43.549957,9999999.0,-0.2463959,-0.28756475,-0.52460766,-0.4678013,-0.31657386,5.438203,-5.7810574,-1.092001,0.048233032
18:37:15.401;0.04327202,-0.060282886,8.053678,0.43549418,-0.3530141,0.119595885,-18.814388,-37.307953,9.008091,221.0033,0.0,0.0,0.0,0.0,1007.86,29.6,44.9715,9999999.0,44.9715,9999999.0,-0.2639299,-0.28625718,-0.50630414,-0.42885262,-0.30783585,5.4652033,-5.802944,-1.084586,0.027236938
18:37:15.750;0.049940504,-0.0635492,8.059507,0.37445903,-0.29197896,-0.0024744272,-18.823511,-37.298363,9.046473,220.9862,0.0,0.0,0.0,0.0,1007.95996,29.6,44.1339,9999999.0,44.1339,9999999.0,-0.1618617,-0.2653013,-0.45450458,-0.45175907,-0.35501605,5.5955153,-5.904553,-1.0429666,0.044326782
18:37:15.811;0.047613848,-0.06616225,8.056509,0.31342387,-0.2309438,-0.06350958,-18.830809,-37.29069,9.040379,220.97253,0.0,0.0,0.0,0.0,1007.95996,29.6,44.1339,9999999.0,44.1339,9999999.0,-0.25681207,-0.2677272,-0.44435394,-0.4705098,-0.33860183,5.6083655,-5.9140215,-1.043068,0.057998657
18:37:16.553;0.05341397,-0.06825269,8.054111,0.1303184,-0.2309438,-0.0024744272,-18.836647,-37.284554,9.035503,220.9616,0.0,0.0,0.0,0.0,1007.83997,29.5,45.137966,9999999.0,45.137966,9999999.0,-0.17540498,-0.35082406,-0.48120332,-0.48551747,-0.37996006,5.7070165,-6.0888457,-1.0911448,0.06893921
18:37:16.717;0.058054067,-0.06992504,8.059854,0.31342387,-0.29197896,-0.12454474,-18.841318,-37.279644,9.031603,220.95284,0.0,0.0,0.0,0.0,1007.83997,29.6,45.137966,9999999.0,45.137966,9999999.0,-0.3015323,-0.35239878,-0.47043756,-0.49705684,-0.4126713,5.7602987,-6.138482,-1.0915655,0.077697754
18:37:17.402;0.0541047,-0.071262926,8.049125,0.61859965,-0.2309438,-0.06350958,-18.826654,-37.275715,9.028482,220.96835,0.0,0.0,0.0,0.0,1007.89996,29.6,44.635933,9999999.0,44.635933,9999999.0,0.059770294,-0.10415989,-0.5433921,-0.50724345,-0.38511056,6.1840396,-6.2966785,-1.1768787,0.062179565
18:37:17.449;0.050945207,-0.064671785,8.055864,0.31342387,-0.29197896,0.05856073,-18.814924,-37.309372,9.007586,221.00352,0.0,0.0,0.0,0.0,1007.89996,29.6,44.635933,9999999.0,44.635933,9999999.0,-0.09683931,-0.115597494,-0.53490937,-0.4599465,-0.36232144,6.1987705,-6.3104014,-1.1798637,0.027008057
18:37:17.502;0.0637405,-0.06706032,8.053595,0.31342387,-0.3530141,0.18063104,-18.82394,-37.2995,9.009269,220.98639,0.0,0.0,0.0,0.0,1007.77997,29.6,45.639996,9999999.0,45.639996,9999999.0,-0.10654755,-0.13182104,-0.5202867,-0.47706205,-0.45344457,6.215382,-6.329111,-1.17676,0.044143677
18:37:18.330;0.058653846,-0.06897115,8.059441,0.37445903,-0.41404927,-0.06350958,-18.831152,-37.2916,9.010615,220.97267,0.0,0.0,0.0,0.0,1007.89996,29.6,44.635933,9999999.0,44.635933,9999999.0,0.1648604,-0.18275209,-0.36215246,-0.49030137,-0.41695642,6.525434,-6.6719437,-1.0271975,0.057861328
18:37:18.732;0.05458452,-0.07049981,8.056456,0.37445903,-0.29197896,-0.06350958,-18.836922,-37.30368,9.030092,220.97308,0.0,0.0,0.0,0.0,1007.95996,29.6,44.1339,9999999.0,44.1339,9999999.0,-0.04160226,-0.1635617,-0.37878063,-0.5013552,-0.38817257,6.6759667,-6.789319,-1.0527283,0.05744934
18:37:18.786;0.05132906,-0.079384185,8.054068,0.31342387,-0.59715474,0.119595885,-18.841537,-37.294945,9.027274,220.96202,0.0,0.0,0.0,0.0,1007.95996,29.6,44.1339,9999999.0,44.1339,9999999.0,-0.1549981,-0.19080208,-0.3731957,-0.5647009,-0.3651268,6.6928916,-6.8215656,-1.0561578,0.06851196
18:37:18.826;0.048724696,-0.071168795,8.052157,0.31342387,-0.2309438,0.05856073,-18.86363,-37.306355,9.02502,220.94205,0.0,0.0,0.0,0.0,1007.8,29.5,45.473534,9999999.0,45.473534,9999999.0,-0.18482752,-0.1971177,-0.3592739,-0.5063849,-0.34668675,6.7054286,-6.8308034,-1.051374,0.08848572
18:37:18.859;0.0466412,-0.07225793,8.065952,0.31342387,-0.41404927,0.119595885,-18.881304,-37.315483,9.023216,220.92609,0.0,0.0,0.0,0.0,1007.89996,29.6,44.635933,9999999.0,44.635933,9999999.0,-0.19330432,-0.20945448,-0.34810564,-0.5132555,-0.33129466,6.7157717,-6.844467,-1.0494415,0.10444641
18:37:18.932;0.037312962,-0.06546779,8.069326,0.19135356,-0.3530141,-0.1855799,-18.877043,-37.32279,9.003373,220.93582,0.0,0.0,0.0,0.0,1007.98,29.6,43.967438,9999999.0,43.967438,9999999.0,-0.20106018,-0.22724621,-0.3308106,-0.46483505,-0.2649279,6.729549,-6.869884,-1.0408306,0.0947113
18:37:19.070;0.037511814,-0.06769712,8.056704,0.31342387,-0.16990864,-0.12454474,-18.873634,-37.328632,9.005898,220.94359,0.0,0.0,0.0,0.0,1007.95996,29.6,44.1339,9999999.0,44.1339,9999999.0,-0.18994215,-0.21445689,-0.34755334,-0.48141602,-0.26675642,6.7728014,-6.8933315,-1.0664406,0.08694458
18:37:19.210;0.037670895,-0.061819144,8.061928,0.25238872,-0.10887349,0.05856073,-18.852509,-37.314907,9.007919,220.96094,0.0,0.0,0.0,0.0,1007.89996,29.6,44.635933,9999999.0,44.635933,9999999.0,-0.18407933,-0.20079619,-0.35641995,-0.43933263,-0.26771563,6.808388,-6.908683,-1.0840014,0.06959534
18:37:19.265;0.037798163,-0.06477821,8.058446,0.31342387,-0.47508442,-0.06350958,-18.835608,-37.303925,9.009536,220.97484,0.0,0.0,0.0,0.0,1007.92,29.6,44.46947,9999999.0,44.46947,9999999.0,-0.1890979,-0.2162977,-0.34502125,-0.4605599,-0.26873535,6.8256264,-6.9348125,-1.0807806,0.05569458
18:37:19.427;0.037899975,-0.07480691,8.05566,0.19135356,-0.29197896,-0.0024744272,-18.840487,-37.31354,9.029228,220.97481,0.0,0.0,0.0,0.0,1007.89996,29.6,44.635933,9999999.0,44.635933,9999999.0,-0.1922333,-0.2401342,-0.34708914,-0.53204197,-0.26954946,6.8566256,-6.9821134,-1.0910692,0.055725098
18:37:19.500;0.04564287,-0.075168416,8.061093,0.37445903,-0.41404927,-0.06350958,-18.844389,-37.32123,9.044983,220.97478,0.0,0.0,0.0,0.0,1007.86,29.5,44.9715,9999999.0,44.9715,9999999.0,-0.21922772,-0.2509522,-0.33920926,-0.53425,-0.32439795,6.883961,-7.012339,-1.0912498,0.055755615
18:37:19.555;0.051837187,-0.06779618,8.065439,0.37445903,-0.16990864,-0.0024744272,-18.865911,-37.327385,9.0391865,220.95227,0.0,0.0,0.0,0.0,1007.86,29.6,44.9715,9999999.0,44.9715,9999999.0,-0.23538168,-0.24719664,-0.33428302,-0.48159352,-0.36822623,6.9045563,-7.021684,-1.0947429,0.07826233
18:37:19.605;0.049131196,-0.061898388,8.068916,0.37445903,-0.5361196,-0.12454474,-18.864729,-37.33231,9.052949,220.95676,0.0,0.0,0.0,0.0,1007.92,29.5,44.46947,9999999.0,44.46947,9999999.0,-0.23269445,-0.2612875,-0.3262431,-0.43951145,-0.34885633,6.9232793,-7.04849,-1.0948666,0.073776245
18:37:19.899;0.046966404,-0.0648416,8.064036,0.25238872,-0.10887349,0.05856073,-18.882183,-37.31785,9.063959,220.92648,0.0,0.0,0.0,0.0,1007.89996,29.6,44.635933,9999999.0,44.635933,9999999.0,-0.19255729,-0.22674851,-0.3535211,-0.46068826,-0.3336864,6.9974813,-7.0804987,-1.1314828,0.10404968
18:37:21.257;0.04523457,-0.06719617,8.075456,0.25238872,-0.2309438,-0.0024744272,-18.877747,-37.30628,9.054367,220.92474,0.0,0.0,0.0,0.0,1007.98,29.6,43.967438,9999999.0,43.967438,9999999.0,0.10389328,-0.21172605,-0.26645735,-0.47674185,-0.32092714,7.339973,-7.3938894,-1.0520159,0.105789185
18:37:21.722;0.0438491,-0.069079824,8.061606,0.37445903,-0.3530141,-0.0024744272,-18.874197,-37.297024,9.065094,220.92336,0.0,0.0,0.0,0.0,1007.89996,29.6,44.635933,9999999.0,44.635933,9999999.0,-0.046669498,-0.21283726,-0.26011226,-0.49094766,-0.3116316,7.5140963,-7.558041,-1.0531665,0.107177734
18:37:21.754;0.042740725,-0.07058675,8.058188,0.31342387,-0.29197896,-0.12454474,-18.871357,-37.28962,9.073675,220.92224,0.0,0.0,0.0,0.0,1007.95996,29.6,44.1339,9999999.0,44.1339,9999999.0,-0.20848179,-0.21983239,-0.25282422,-0.5018699,-0.303883,7.5244393,-7.5676765,-1.0532482,0.108291626
18:37:21.901;0.03419258,-0.06413084,8.055454,0.31342387,-0.41404927,-0.12454474,-18.869085,-37.302097,9.08054,220.93275,0.0,0.0,0.0,0.0,1007.89996,29.6,44.635933,9999999.0,44.635933,9999999.0,-0.1797136,-0.24022534,-0.26363203,-0.4561277,-0.24319135,7.570199,-7.6281276,-1.0714318,0.09777832
18:37:22.010;0.03501551,-0.05896612,8.060928,0.31342387,-0.3530141,0.119595885,-18.867268,-37.312077,9.067632,220.94115,0.0,0.0,0.0,0.0,1007.86,29.6,44.9715,9999999.0,44.9715,9999999.0,-0.21001595,-0.24884808,-0.2699976,-0.41911024,-0.24887636,7.604676,-7.6669593,-1.0851316,0.08938599
18:37:22.071;0.035673853,-0.047172897,8.065308,0.25238872,-0.47508442,-0.0024744272,-18.865814,-37.32006,9.057305,220.94786,0.0,0.0,0.0,0.0,1007.86,29.5,44.9715,9999999.0,44.9715,9999999.0,-0.23548548,-0.2642447,-0.2557948,-0.3351082,-0.25342032,7.6200714,-7.6959395,-1.0778363,0.08267212
18:37:22.137;0.028539082,-0.045399763,8.068811,0.19135356,-0.29197896,-0.0024744272,-18.86465,-37.30805,9.067444,220.94185,0.0,0.0,0.0,0.0,1007.92,29.6,44.46947,9999999.0,44.46947,9999999.0,-0.25303054,-0.2709081,-0.24906528,-0.3223735,-0.20264897,7.632701,-7.71521,-1.0779996,0.08868408
18:37:22.233;0.030492712,-0.0516427,8.079275,0.19135356,-0.29197896,0.119595885,-18.88212,-37.29844,9.057156,220.91455,0.0,0.0,0.0,0.0,1007.95996,29.6,44.1339,9999999.0,44.1339,9999999.0,-0.2548119,-0.28150985,-0.24199714,-0.36622685,-0.21623966,7.651071,-7.74324,-1.0782372,0.115982056
18:37:22.252;0.032055616,-0.048975606,8.079985,0.25238872,-0.41404927,0.05856073,-18.877697,-37.30915,9.048924,220.92657,0.0,0.0,0.0,0.0,1007.89996,29.6,44.635933,9999999.0,44.635933,9999999.0,-0.27812582,-0.284819,-0.23285116,-0.3472827,-0.22730342,7.6558666,-7.7511067,-1.0759648,0.10395813
18:37:22.760;0.03330594,-0.04684193,8.072891,0.37445903,-0.41404927,-0.0024744272,-18.855759,-37.29932,9.042339,220.94733,0.0,0.0,0.0,0.0,1007.95996,29.6,44.1339,9999999.0,44.1339,9999999.0,-0.0997178,-0.30817553,-0.19743353,-0.33244497,-0.23637712,7.8457174,-7.9610295,-1.0462745,0.08320618
18:37:23.298;0.0343062,-0.04513499,8.0902,0.31342387,-0.47508442,0.05856073,-18.856607,-37.309856,9.037071,220.9528,0.0,0.0,0.0,0.0,1007.86,29.5,44.9715,9999999.0,44.9715,9999999.0,-0.14284816,-0.39579937,-0.19323733,-0.3196453,-0.24295542,8.014653,-8.2171,-1.0476083,0.07772827
18:37:23.437;0.035106406,-0.036107995,8.096387,0.31342387,-0.41404927,-0.0024744272,-18.857286,-37.299885,9.032857,220.94582,0.0,0.0,0.0,0.0,1007.89996,29.6,44.635933,9999999.0,44.635933,9999999.0,-0.35060638,-0.40455896,-0.1797585,-0.25552168,-0.24843381,8.057906,-8.274239,-1.0395268,0.0847168
18:37:24.019;0.03574657,-0.044209287,8.093675,0.19135356,-0.2309438,0.119595885,-18.85783,-37.29191,9.029486,220.94022,0.0,0.0,0.0,0.0,1007.89996,29.6,44.635933,9999999.0,44.635933,9999999.0,-0.29339892,-0.4245393,-0.17577074,-0.31295496,-0.25304747,8.169465,-8.408879,-1.0409694,0.09031677
18:37:24.836;0.028597256,-0.043028876,8.083843,0.37445903,-0.16990864,0.18063104,-18.876663,-37.285526,9.045189,220.91322,0.0,0.0,0.0,0.0,1007.89996,29.6,44.635933,9999999.0,44.635933,9999999.0,-0.12233355,-0.2599796,-0.074153505,-0.30497056,-0.20268479,8.475398,-8.547694,-0.94325954,0.11730957
18:37:24.925;0.03053925,-0.04974599,8.091301,0.31342387,-0.29197896,-0.06350958,-18.85493,-37.29882,9.039351,220.94803,0.0,0.0,0.0,0.0,1007.95996,29.6,44.1339,9999999.0,44.1339,9999999.0,-0.23448823,-0.25958985,-0.055265713,-0.35225227,-0.21624814,8.503293,-8.57368,-0.9271834,0.08250427
18:37:25.984;0.032092847,-0.055119686,8.089605,0.25238872,-0.3530141,0.119595885,-18.855946,-37.327858,9.034681,220.96474,0.0,0.0,0.0,0.0,1007.95996,29.6,44.1339,9999999.0,44.1339,9999999.0,-2.716626E-4,-0.37117723,-0.11875601,-0.3903839,-0.22729568,8.770573,-8.947522,-0.99444,0.0657959
18:37:26.042;0.033335723,-0.05941864,8.080587,0.43549418,-0.41404927,-0.12454474,-18.875156,-37.351086,9.030945,220.95561,0.0,0.0,0.0,0.0,1007.92,29.6,44.46947,9999999.0,44.46947,9999999.0,-0.34742618,-0.36873943,-0.10808465,-0.42129946,-0.23636076,8.795832,-8.971537,-0.98750347,0.074920654
18:37:26.117;0.034330025,-0.06285781,8.073374,0.25238872,-0.41404927,-0.0024744272,-18.872126,-37.33287,9.009556,220.94806,0.0,0.0,0.0,0.0,1007.95996,29.6,44.1339,9999999.0,44.1339,9999999.0,-0.3517357,-0.38000616,-0.11342752,-0.44608137,-0.24362728,8.814761,-9.00259,-0.99684435,0.082473755
18:37:26.154;0.035125464,-0.05794769,8.059941,0.37445903,-0.2309438,-0.0024744272,-18.869701,-37.336697,9.029244,220.95338,0.0,0.0,0.0,0.0,1007.92,29.6,44.46947,9999999.0,44.46947,9999999.0,-0.3670666,-0.37309307,-0.109705724,-0.41192228,-0.24968868,8.828616,-9.011135,-0.9969359,0.07714844
18:37:26.466;0.03576182,-0.061681043,8.049195,0.37445903,-0.41404927,-0.12454474,-18.867762,-37.30296,9.008196,220.9349,0.0,0.0,0.0,0.0,1007.92,29.6,44.46947,9999999.0,44.46947,9999999.0,-0.25991753,-0.3864099,-0.10635566,-0.43904507,-0.2545506,8.945447,-9.140319,-0.9977079,0.09562683
18:37:26.475;0.0362709,-0.05700628,8.04826,0.31342387,-0.04783833,-0.0024744272,-18.866209,-37.312767,9.009757,220.94287,0.0,0.0,0.0,0.0,1007.95996,29.6,44.1339,9999999.0,44.1339,9999999.0,-0.38403368,-0.38193905,-0.1035738,-0.40581834,-0.2582053,8.948268,-9.140749,-0.9988288,0.08766174
18:37:26.697;0.036678165,-0.05326647,8.03985,0.25238872,-0.41404927,-0.06350958,-18.864967,-37.320614,9.011005,220.94923,0.0,0.0,0.0,0.0,1007.92,29.6,44.46947,9999999.0,44.46947,9999999.0,-0.32698244,-0.41575092,-0.100414686,-0.37959257,-0.2613784,9.004298,-9.232668,-0.99937814,0.08129883
18:37:26.702;0.03700398,-0.057936065,8.040784,0.37445903,-0.41404927,-0.0024744272,-18.863974,-37.326893,9.012005,220.95433,0.0,0.0,0.0,0.0,1007.92,29.6,44.46947,9999999.0,44.46947,9999999.0,-0.41385746,-0.41288254,-0.09719355,-0.41282037,-0.26366854,9.00617,-9.234738,-0.9996957,0.07620239
18:37:26.741;0.03726463,-0.06167174,8.033869,0.25238872,-0.3530141,-0.0024744272,-18.84478,-37.350315,8.994404,220.99226,0.0,0.0,0.0,0.0,1007.89996,29.6,44.635933,9999999.0,44.635933,9999999.0,-0.4037749,-0.41450664,-0.09457886,-0.43981588,-0.2657534,9.016013,-9.248506,-0.9997922,0.038269043
18:37:27.379;0.03747315,-0.056998838,8.0283375,0.37445903,-0.41404927,-0.06350958,-18.829424,-37.369053,8.998723,221.02258,0.0,0.0,0.0,0.0,1007.92,29.6,44.46947,9999999.0,44.46947,9999999.0,-0.1802252,-0.44084936,-0.0940754,-0.40677193,-0.2674257,9.254918,-9.512669,-1.0013709,0.007949829
18:37:27.437;0.04530141,-0.06092196,8.023912,0.61859965,-0.2309438,-0.06350958,-18.835539,-37.365643,9.020578,221.01302,0.0,0.0,0.0,0.0,1007.95996,29.6,44.1339,9999999.0,44.1339,9999999.0,-0.40557128,-0.41705605,-0.09545343,-0.4350058,-0.3234678,9.290797,-9.526063,-1.0050545,0.01751709
18:37:27.601;0.043902576,-0.056399014,8.028033,0.5575645,-0.29197896,-0.0024744272,-18.822031,-37.362915,9.019663,221.02785,0.0,0.0,0.0,0.0,1007.89996,29.6,44.635933,9999999.0,44.635933,9999999.0,-0.32715324,-0.37380344,-0.10369791,-0.40250507,-0.31332022,9.382237,-9.573948,-1.01547,0.0026855469
18:37:28.054;0.050444953,-0.0604421,8.03133,0.008248091,-0.41404927,-0.0024744272,-18.811226,-37.360733,9.01893,221.03972,0.0,0.0,0.0,0.0,1007.89996,29.6,44.635933,9999999.0,44.635933,9999999.0,-0.37129736,-0.55447584,-0.102903746,-0.43117934,-0.35986108,9.385965,-9.761098,-1.0165884,-0.009185791
18:37:30.361;0.04801741,-0.06367657,8.033968,0.37445903,-0.3530141,-0.0024744272,-18.802582,-37.340588,9.036744,221.03789,0.0,0.0,0.0,0.0,1007.95996,29.6,44.1339,9999999.0,44.1339,9999999.0,0.29449806,-0.51670194,-0.10658953,-0.45410404,-0.3424305,10.2502165,-10.575854,-1.0222994,-0.0073547363
18:37:30.463;0.046075374,-0.06626415,8.0360775,0.43549418,-0.47508442,0.18063104,-18.814066,-37.32447,9.032596,221.01389,0.0,0.0,0.0,0.0,1007.92,29.5,44.46947,9999999.0,44.46947,9999999.0,-0.47228456,-0.5168982,-0.104372144,-0.47243294,-0.3284943,10.294637,-10.624313,-1.0225518,0.016647339
18:37:30.492;0.044521745,-0.060672767,8.045427,0.37445903,-0.16990864,0.05856073,-18.823254,-37.311577,9.029277,220.99469,0.0,0.0,0.0,0.0,1008.02997,29.6,43.549957,9999999.0,43.549957,9999999.0,-0.50455946,-0.5056381,-0.09643431,-0.43206835,-0.31705084,10.305496,-10.629241,-1.0173135,0.035842896
18:37:30.535;0.043278843,-0.05619966,8.037584,0.31342387,0.07423198,-0.0024744272,-18.812202,-37.31966,9.008222,221.0132,0.0,0.0,0.0,0.0,1008.00995,29.6,43.716423,9999999.0,43.716423,9999999.0,-0.4903298,-0.48356512,-0.091691196,-0.40060595,-0.30850196,10.318974,-10.626049,-1.0147954,0.017333984
18:37:30.560;0.04228452,-0.05262117,8.054294,0.19135356,-0.29197896,-0.0024744272,-18.803362,-37.32613,8.991377,221.02802,0.0,0.0,0.0,0.0,1008.00995,29.6,43.716423,9999999.0,43.716423,9999999.0,-0.47669208,-0.48032755,-0.089867644,-0.37432042,-0.30078995,10.323757,-10.633348,-1.0148573,0.0025177002
18:37:30.606;0.04148906,-0.049758382,8.052339,0.31342387,-0.41404927,-0.12454474,-18.79629,-37.331303,8.996302,221.03987,0.0,0.0,0.0,0.0,1008.00995,29.6,43.716423,9999999.0,43.716423,9999999.0,-0.4636727,-0.47896868,-0.0883686,-0.35404262,-0.2952039,10.338175,-10.652394,-1.0149711,-0.009338379
18:37:30.672;0.040852696,-0.06279104,8.043113,0.5575645,-0.47508442,0.18063104,-18.809032,-37.317043,9.018641,221.01547,0.0,0.0,0.0,0.0,1008.00995,29.6,43.716423,9999999.0,43.716423,9999999.0,-0.44227168,-0.46997482,-0.094355576,-0.44728234,-0.29100618,10.374974,-10.68375,-1.0231911,0.015060425
18:37:30.729;0.0403436,-0.05789428,8.035732,0.31342387,-0.5361196,-0.1855799,-18.819225,-37.324036,9.036513,221.00731,0.0,0.0,0.0,0.0,1008.00995,29.6,43.716423,9999999.0,43.716423,9999999.0,-0.4516302,-0.47777277,-0.08209096,-0.41278112,-0.28764507,10.392526,-10.713773,-1.0130757,0.023223877
18:37:30.881;0.039936326,-0.061638314,8.029828,0.31342387,-0.41404927,-0.06350958,-18.80898,-37.31123,9.050811,221.01195,0.0,0.0,0.0,0.0,1007.95996,29.6,44.1339,9999999.0,44.1339,9999999.0,-0.4300185,-0.4891997,-0.10790329,-0.439798,-0.28494966,10.440479,-10.7771225,-1.0414695,0.018585205
18:37:30.941;0.039610505,-0.06463354,8.032766,0.37445903,-0.5361196,-0.0024744272,-18.819185,-37.319386,9.062248,221.00449,0.0,0.0,0.0,0.0,1008.00995,29.6,43.716423,9999999.0,43.716423,9999999.0,-0.46698445,-0.4942936,-0.10889641,-0.46099985,-0.2825207,10.462572,-10.808754,-1.0452166,0.026046753
18:37:30.982;0.031688403,-0.05936828,8.035116,0.37445903,-0.2309438,-0.0024744272,-18.827349,-37.32591,9.089799,220.99852,0.0,0.0,0.0,0.0,1007.95996,29.6,44.1339,9999999.0,44.1339,9999999.0,-0.4774615,-0.48193696,-0.10618008,-0.42332473,-0.22595228,10.478299,-10.818454,-1.0453205,0.03201294
18:37:31.012;0.033012167,-0.062817514,8.036997,0.25238872,-0.10887349,-0.12454474,-18.83388,-37.331127,9.111839,220.99376,0.0,0.0,0.0,0.0,1007.92,29.6,44.46947,9999999.0,44.46947,9999999.0,-0.47383425,-0.47226518,-0.10339375,-0.4478134,-0.23533535,10.48587,-10.82172,-1.0453948,0.03677368
18:37:31.057;0.034071177,-0.07323835,8.046163,0.19135356,-0.2309438,0.05856073,-18.820704,-37.3353,9.111072,221.01245,0.0,0.0,0.0,0.0,1008.00995,29.6,43.716423,9999999.0,43.716423,9999999.0,-0.46481124,-0.47055176,-0.10645666,-0.5215026,-0.24260536,10.494481,-10.832112,-1.0509993,0.018081665
18:37:31.083;0.034918386,-0.06625213,8.061156,0.43549418,-0.2309438,-0.0024744272,-18.810163,-37.338642,9.110457,221.0274,0.0,0.0,0.0,0.0,1007.95996,29.6,44.1339,9999999.0,44.1339,9999999.0,-0.45946196,-0.46112072,-0.10277284,-0.4708811,-0.2481773,10.505804,-10.838117,-1.0494767,0.0031280518
18:37:31.115;0.035596155,-0.068324596,8.057829,0.31342387,-0.3530141,-0.0024744272,-18.820131,-37.322914,9.1283655,221.00551,0.0,0.0,0.0,0.0,1008.00995,29.6,43.716423,9999999.0,43.716423,9999999.0,-0.45178556,-0.45888233,-0.1002945,-0.48581064,-0.2530983,10.515834,-10.849413,-1.0495559,0.025024414
18:37:31.141;0.03613837,-0.069982566,8.062828,0.37445903,-0.3530141,0.119595885,-18.828106,-37.310333,9.142693,220.98798,0.0,0.0,0.0,0.0,1007.92,29.6,44.46947,9999999.0,44.46947,9999999.0,-0.45010924,-0.45523775,-0.09750053,-0.4972901,-0.2567938,10.52557,-10.858591,-1.0496203,0.042556763
18:37:31.175;0.036572143,-0.0636475,8.059166,0.43549418,-0.2309438,-0.0024744272,-18.852884,-37.300266,9.135754,220.95143,0.0,0.0,0.0,0.0,1007.92,29.6,44.46947,9999999.0,44.46947,9999999.0,-0.44067195,-0.44475347,-0.08998357,-0.45248103,-0.25999585,10.540377,-10.866444,-1.045554,0.07910156
18:37:31.254;0.03691916,-0.058579445,8.071559,0.43549418,-0.5361196,0.119595885,-18.835907,-37.292213,9.111803,220.96722,0.0,0.0,0.0,0.0,1008.07,29.6,43.21439,9999999.0,43.21439,9999999.0,-0.41088548,-0.44889,-0.08710687,-0.4158132,-0.26206112,10.574346,-10.908261,-1.045747,0.063308716
18:37:31.287;0.037196774,-0.054525003,8.081473,0.19135356,-0.29197896,-0.1855799,-18.822327,-37.28577,9.092643,220.97987,0.0,0.0,0.0,0.0,1007.98,29.6,43.967438,9999999.0,43.967438,9999999.0,-0.44145504,-0.44734272,-0.080483824,-0.38655972,-0.26370868,10.58066,-10.917896,-1.0418004,0.05065918
18:37:31.311;0.037418865,-0.05128145,8.074082,0.06928325,-0.2309438,-0.06350958,-18.82986,-37.299015,9.077314,220.97884,0.0,0.0,0.0,0.0,1008.02997,29.6,43.549957,9999999.0,43.549957,9999999.0,-0.44397637,-0.44606552,-0.082386926,-0.36389765,-0.2655267,10.582392,-10.92367,-1.0464399,0.051696777
18:37:31.339;0.03759654,-0.05634805,8.083492,0.43549418,-0.2309438,-0.0024744272,-18.835888,-37.309612,9.065052,220.97801,0.0,0.0,0.0,0.0,1007.92,29.6,44.46947,9999999.0,44.46947,9999999.0,-0.43318194,-0.4361849,-0.08143148,-0.39938408,-0.2664758,10.594585,-10.930137,-1.0482181,0.052520752
18:37:31.369;0.037738677,-0.060401328,8.075697,0.43549418,-0.2309438,-0.12454474,-18.84071,-37.29969,9.055242,220.96597,0.0,0.0,0.0,0.0,1007.95996,29.6,44.1339,9999999.0,44.1339,9999999.0,-0.42322817,-0.42690817,-0.078584395,-0.4285251,-0.26774046,10.60765,-10.937065,-1.0482924,0.06455994
18:37:31.401;0.04551383,-0.055982508,8.069461,0.1303184,-0.2309438,-0.0024744272,-18.844568,-37.29175,9.047394,220.95634,0.0,0.0,0.0,0.0,1007.89996,29.6,44.635933,9999999.0,44.635933,9999999.0,-0.42236054,-0.42739242,-0.079312615,-0.3974812,-0.3231517,10.61169,-10.944224,-1.0521532,0.07418823
18:37:31.423;0.04407251,-0.060108896,8.079795,0.43549418,-0.2309438,-0.0024744272,-18.847654,-37.2854,9.041115,220.94864,0.0,0.0,0.0,0.0,1007.92,29.6,44.46947,9999999.0,44.46947,9999999.0,-0.41755322,-0.42065793,-0.07614426,-0.42623252,-0.31251708,10.621706,-10.949536,-1.0522101,0.08189392
18:37:31.458;0.042919453,-0.06341001,8.07274,0.37445903,-0.10887349,-0.0024744272,-18.850124,-37.28032,9.054492,220.94247,0.0,0.0,0.0,0.0,1007.98,29.6,43.967438,9999999.0,43.967438,9999999.0,-0.4084015,-0.41005993,-0.07294509,-0.45003307,-0.30460596,10.634812,-10.953347,-1.0522966,0.08805847
18:37:31.483;0.03433556,-0.050728004,8.082418,0.31342387,-0.2309438,-0.06350958,-18.8521,-37.276257,9.065193,220.93753,0.0,0.0,0.0,0.0,1007.89996,29.6,44.635933,9999999.0,44.635933,9999999.0,-0.40137184,-0.40387046,-0.06968677,-0.35959983,-0.24339648,10.642648,-10.959121,-1.0523585,0.09300232
18:37:31.518;0.035129894,-0.04824385,8.0824995,0.25238872,-0.3530141,-0.0024744272,-18.85368,-37.291405,9.055355,220.94498,0.0,0.0,0.0,0.0,1007.95996,29.6,44.1339,9999999.0,44.1339,9999999.0,-0.39422318,-0.40308166,-0.06869806,-0.34198704,-0.24902521,10.651229,-10.971124,-1.0545179,0.08555603
18:37:31.546;0.043426804,-0.05391797,8.090226,0.31342387,-0.47508442,0.05856073,-18.854944,-37.303524,9.047484,220.95093,0.0,0.0,0.0,0.0,1007.98,29.6,43.967438,9999999.0,43.967438,9999999.0,-0.3940565,-0.40536255,-0.0657999,-0.38184124,-0.30754313,10.660005,-10.9844265,-1.0545871,0.0796051
18:37:31.574;0.04240289,-0.050795823,8.088746,0.43549418,-0.2309438,-0.0024744272,-18.855955,-37.29482,9.0595875,220.9443,0.0,0.0,0.0,0.0,1008.02997,29.6,43.549957,9999999.0,43.549957,9999999.0,-0.3925013,-0.39699534,-0.061152447,-0.35979718,-0.30034772,10.672198,-10.990893,-1.0529474,0.08622742
18:37:31.631;0.041583758,-0.05595955,8.087562,0.19135356,-0.2309438,-0.12454474,-18.856764,-37.306255,9.06927,220.9504,0.0,0.0,0.0,0.0,1007.98,29.6,43.967438,9999999.0,43.967438,9999999.0,-0.38610747,-0.39740393,-0.058467265,-0.39643005,-0.29458764,10.683297,-11.004288,-1.0530909,0.08013916
18:37:31.683;0.040928453,-0.067751974,8.078953,0.49652934,-0.2309438,0.18063104,-18.85741,-37.315403,9.077016,220.95526,0.0,0.0,0.0,0.0,1007.89996,29.6,44.635933,9999999.0,44.635933,9999999.0,-0.37376225,-0.38386092,-0.06213929,-0.4804783,-0.29025114,10.709117,-11.016296,-1.0595672,0.07527161
18:37:31.737;0.040404208,-0.06952447,8.072065,0.31342387,-0.3530141,-0.0024744272,-18.839529,-37.30432,9.083213,220.97028,0.0,0.0,0.0,0.0,1008.00995,29.6,43.716423,9999999.0,43.716423,9999999.0,-0.3694667,-0.38649443,-0.05013237,-0.49346852,-0.28677735,10.726042,-11.035359,-1.0498132,0.060256958
18:37:31.782;0.03998481,-0.06328102,8.074217,0.19135356,-0.3530141,0.05856073,-18.843624,-37.295456,9.069771,220.9598,0.0,0.0,0.0,0.0,1007.95996,29.6,44.1339,9999999.0,44.1339,9999999.0,-0.3794941,-0.39280072,-0.04782163,-0.44903633,-0.2837268,10.734462,-11.050892,-1.049922,0.070739746
18:37:31.824;0.039649293,-0.06594771,8.068277,0.37445903,-0.16990864,-0.06350958,-18.846899,-37.288364,9.059017,220.9514,0.0,0.0,0.0,0.0,1007.98,29.6,43.967438,9999999.0,43.967438,9999999.0,-0.37853104,-0.3837514,-0.04281481,-0.46830267,-0.2815524,10.750564,-11.058198,-1.0474039,0.07913208
18:37:31.936;0.031719435,-0.06808106,8.063525,0.31342387,-0.41404927,-0.12454474,-18.84952,-37.30109,9.032014,220.95605,0.0,0.0,0.0,0.0,1007.89996,29.6,44.635933,9999999.0,44.635933,9999999.0,-0.35134974,-0.3942763,-0.047439765,-0.48373812,-0.22537483,10.785667,-11.104571,-1.054517,0.07447815
18:37:31.967;0.033036992,-0.06978774,8.067385,0.31342387,-0.29197896,0.119595885,-18.833216,-37.292873,9.028811,220.97093,0.0,0.0,0.0,0.0,1008.02997,29.6,43.549957,9999999.0,43.549957,9999999.0,-0.38678145,-0.3926086,-0.049082626,-0.4956265,-0.2346236,10.795383,-11.113623,-1.0583779,0.05960083
18:37:32.250;0.03409104,-0.07115308,8.070473,0.19135356,-0.47508442,-0.12454474,-18.820173,-37.2863,9.026249,220.98283,0.0,0.0,0.0,0.0,1007.86,29.6,44.9715,9999999.0,44.9715,9999999.0,-0.34178904,-0.47155347,-0.013978274,-0.5051289,-0.24201621,10.849537,-11.248072,-1.0245322,0.047698975
18:37:32.278;0.03493428,-0.07224536,8.065282,0.19135356,-0.3530141,0.119595885,-18.809738,-37.299442,9.0241995,221.00374,0.0,0.0,0.0,0.0,1007.92,29.6,44.46947,9999999.0,44.46947,9999999.0,-0.46732342,-0.47228092,-0.016458275,-0.5132126,-0.24816169,10.854704,-11.257603,-1.0278949,0.026794434
18:37:32.312;0.03560887,-0.06545773,8.061129,0.25238872,-0.41404927,-0.06350958,-18.801392,-37.273155,9.00416,220.99773,0.0,0.0,0.0,0.0,1008.02997,29.6,43.549957,9999999.0,43.549957,9999999.0,-0.46373045,-0.4733137,-0.011488047,-0.4652367,-0.25308582,10.863285,-11.271681,-1.0238286,0.032806396
18:37:32.355;0.043809988,-0.067689076,8.065468,0.43549418,-0.2309438,0.119595885,-18.794714,-37.252125,8.988128,220.9929,0.0,0.0,0.0,0.0,1007.98,29.6,43.967438,9999999.0,43.967438,9999999.0,-0.4546856,-0.4617743,-0.013244257,-0.48083386,-0.31120506,10.882447,-11.281842,-1.026623,0.037628174
18:37:32.395;0.05037088,-0.061812706,8.068939,0.31342387,-0.3530141,-0.3076502,-18.807772,-37.2721,9.012102,220.98926,0.0,0.0,0.0,0.0,1007.92,29.6,44.46947,9999999.0,44.46947,9999999.0,-0.44933775,-0.46099636,-0.0075829183,-0.43890142,-0.3576575,10.8946705,-11.295609,-1.0219588,0.041275024
18:37:32.450;0.04795815,-0.05711161,8.056394,0.49652934,-0.47508442,0.119595885,-18.799818,-37.26968,8.994482,220.9975,0.0,0.0,0.0,0.0,1008.07,29.6,43.21439,9999999.0,43.21439,9999999.0,-0.43313658,-0.45690206,-0.023352902,-0.4061546,-0.34105808,10.92198,-11.321739,-1.0388796,0.03303528
18:37:32.500;0.053689413,-0.07633507,8.069342,0.43549418,-0.5361196,-0.06350958,-18.793455,-37.286144,8.998786,221.01547,0.0,0.0,0.0,0.0,1008.02997,29.6,43.549957,9999999.0,43.549957,9999999.0,-0.4368377,-0.4625201,-0.016607234,-0.54198354,-0.38119513,10.94419,-11.349081,-1.0327803,0.015060425
18:37:32.550;0.050612975,-0.068729505,8.064377,0.37445903,-0.2309438,-0.0024744272,-18.788364,-37.299316,9.002229,221.02985,0.0,0.0,0.0,0.0,1008.08997,29.6,43.047928,9999999.0,43.047928,9999999.0,-0.44468695,-0.454301,-0.019373326,-0.4882879,-0.35957724,10.962913,-11.360628,-1.0359558,6.866455E-4
18:37:32.585;0.04049038,-0.054983605,8.075727,0.5575645,-0.3530141,0.05856073,-18.784292,-37.309853,8.986583,221.04134,0.0,0.0,0.0,0.0,1008.00995,29.6,43.716423,9999999.0,43.716423,9999999.0,-0.43389225,-0.44306806,-0.019286798,-0.3900875,-0.28726265,10.982428,-11.372984,-1.0360423,-0.010803223
18:37:32.612;0.04005375,-0.05164833,8.077147,0.43549418,-0.10887349,-0.12454474,-18.781034,-37.318283,8.974066,221.05052,0.0,0.0,0.0,0.0,1008.00995,29.6,43.716423,9999999.0,43.716423,9999999.0,-0.43001074,-0.42997363,-0.017751325,-0.36636138,-0.28411582,10.994186,-11.375923,-1.0344611,-0.019989014
18:37:32.685;0.039704446,-0.056641556,8.085943,0.25238872,-0.47508442,-0.0024744272,-18.778427,-37.325027,8.982452,221.05788,0.0,0.0,0.0,0.0,1007.95996,29.6,44.1339,9999999.0,44.1339,9999999.0,-0.41159245,-0.44250917,-0.02673105,-0.40134215,-0.2813306,11.012359,-11.41013,-1.0434284,-0.02734375
18:37:32.726;0.039425,-0.060636137,8.077658,0.25238872,-0.29197896,-0.12454474,-18.776342,-37.33042,8.989162,221.06375,0.0,0.0,0.0,0.0,1007.98,29.6,43.967438,9999999.0,43.967438,9999999.0,-0.4318724,-0.44084552,-0.026962643,-0.43008608,-0.27963609,11.022959,-11.422393,-1.0435324,-0.033218384
18:37:32.761;0.03154,-0.056170356,8.0786915,0.43549418,-0.2309438,-0.06350958,-18.774673,-37.334736,8.99453,221.06845,0.0,0.0,0.0,0.0,1008.00995,29.6,43.716423,9999999.0,43.716423,9999999.0,-0.4250584,-0.42895225,-0.031453636,-0.39836252,-0.22368176,11.038201,-11.430476,-1.0478914,-0.03791809
18:37:32.795;0.032893445,-0.05259773,8.079518,0.06928325,-0.41404927,-0.1855799,-18.773338,-37.33819,8.998824,221.07222,0.0,0.0,0.0,0.0,1007.92,29.6,44.46947,9999999.0,44.46947,9999999.0,-0.42552444,-0.4354752,-0.033774443,-0.37298763,-0.23325713,11.040557,-11.444554,-1.0500507,-0.04168701
18:37:32.850;0.0339762,-0.057401076,8.080179,0.31342387,-0.16990864,-0.06350958,-18.79067,-37.34095,9.002259,221.05269,0.0,0.0,0.0,0.0,1008.07,29.6,43.21439,9999999.0,43.21439,9999999.0,-0.41801244,-0.42362857,-0.043544825,-0.40701512,-0.2409145,11.057796,-11.453899,-1.0602577,-0.022155762
18:37:32.966;0.034842405,-0.053582307,8.065386,0.49652934,-0.29197896,-0.0024744272,-18.804537,-37.34316,9.005008,221.03708,0.0,0.0,0.0,0.0,1008.07,29.6,43.21439,9999999.0,43.21439,9999999.0,-0.36632323,-0.39713913,-0.05002462,-0.38063475,-0.24751033,11.115393,-11.487769,-1.0676248,-0.0065460205
18:37:32.994;0.03553537,-0.058188736,8.061213,0.31342387,-0.29197896,-0.06350958,-18.79723,-37.34493,9.007206,221.04712,0.0,0.0,0.0,0.0,1007.92,29.6,44.46947,9999999.0,44.46947,9999999.0,-0.3888674,-0.3941532,-0.049423754,-0.41357037,-0.25256255,11.124168,-11.495945,-1.0676941,-0.016586304
18:37:33.019;0.03608974,-0.06187388,8.050212,0.19135356,-0.29197896,0.119595885,-18.809784,-37.346344,9.008965,221.03262,0.0,0.0,0.0,0.0,1007.86,29.6,44.9715,9999999.0,44.9715,9999999.0,-0.39038923,-0.39487198,-0.050033074,-0.44036192,-0.25685224,11.128952,-11.503244,-1.0692818,-0.002090454
18:37:33.055;0.036533237,-0.05716055,8.056734,0.49652934,-0.29197896,-0.06350958,-18.819828,-37.347477,9.010372,221.02103,0.0,0.0,0.0,0.0,1007.95996,29.6,44.1339,9999999.0,44.1339,9999999.0,-0.37807336,-0.38572276,-0.04474015,-0.40648848,-0.2597992,11.146331,-11.513464,-1.0650959,0.009506226
18:37:33.085;0.036888033,-0.045728438,8.054291,0.19135356,-0.29197896,-0.0024744272,-18.827862,-37.329983,9.029898,221.00041,0.0,0.0,0.0,0.0,1007.95996,29.6,44.1339,9999999.0,44.1339,9999999.0,-0.37888834,-0.38514283,-0.045110114,-0.3252913,-0.2624042,11.152071,-11.522223,-1.0670012,0.03012085
18:37:33.121;0.03717187,-0.044244196,8.059998,0.37445903,-0.3530141,-0.1855799,-18.83429,-37.315987,9.045518,220.9839,0.0,0.0,0.0,0.0,1007.89996,29.6,44.635933,9999999.0,44.635933,9999999.0,-0.3701523,-0.38083428,-0.04336502,-0.31451043,-0.26423633,11.165926,-11.535285,-1.0670928,0.04663086
18:37:33.142;0.03739894,-0.050718248,8.056902,0.25238872,-0.41404927,0.119595885,-18.839432,-37.30479,9.058014,220.97069,0.0,0.0,0.0,0.0,1007.98,29.6,43.967438,9999999.0,43.967438,9999999.0,-0.37548414,-0.38140887,-0.044938188,-0.36066863,-0.2659513,11.170974,-11.543566,-1.0708044,0.05984497
18:37:33.179;0.0375806,-0.048236042,8.062086,0.61859965,-0.29197896,0.05856073,-18.843546,-37.31423,9.068011,220.9715,0.0,0.0,0.0,0.0,1007.95996,29.6,44.1339,9999999.0,44.1339,9999999.0,-0.3582062,-0.3669707,-0.038522154,-0.34279695,-0.26707175,11.193862,-11.554369,-1.0663793,0.059036255
18:37:33.204;0.037725925,-0.04625028,8.058573,0.25238872,-0.47508442,-0.0024744272,-18.846836,-37.321785,9.076009,220.97214,0.0,0.0,0.0,0.0,1007.98,29.6,43.967438,9999999.0,43.967438,9999999.0,-0.35977697,-0.37005103,-0.035091676,-0.32882842,-0.2682218,11.200424,-11.566721,-1.0648568,0.058395386
18:37:33.240;0.04550363,-0.05998456,8.055761,0.43549418,-0.04783833,-0.0024744272,-18.83107,-37.327827,9.082407,220.99515,0.0,0.0,0.0,0.0,1007.95996,29.6,44.1339,9999999.0,44.1339,9999999.0,-0.35581815,-0.3568621,-0.03376944,-0.42661938,-0.3236275,11.216102,-11.568443,-1.0649458,0.03538513
18:37:33.278;0.04406435,-0.06331054,8.061174,0.49652934,-0.47508442,0.05856073,-18.818457,-37.314262,9.069126,221.00221,0.0,0.0,0.0,0.0,1007.98,29.6,43.967438,9999999.0,43.967438,9999999.0,-0.3402335,-0.35738456,-0.032619797,-0.4499714,-0.31317997,11.23497,-11.586496,-1.0650399,0.028320313
18:37:33.315;0.042912927,-0.06597132,8.065504,0.43549418,-0.3530141,-0.12454474,-18.808365,-37.30341,9.058501,221.00787,0.0,0.0,0.0,0.0,1007.83997,29.6,45.137966,9999999.0,45.137966,9999999.0,-0.34381846,-0.355839,-0.029390803,-0.46863043,-0.30483204,11.251083,-11.599558,-1.0628731,0.022659302
18:37:33.346;0.034330342,-0.060438503,8.068968,0.37445903,-0.3530141,-0.0024744272,-18.800293,-37.294727,9.050001,221.01239,0.0,0.0,0.0,0.0,1008.02997,29.6,43.549957,9999999.0,43.549957,9999999.0,-0.34592912,-0.35461038,-0.032223802,-0.4291472,-0.2437631,11.2626915,-11.610501,-1.066734,0.0181427
18:37:33.390;0.035125718,-0.056012247,8.071739,0.25238872,-0.29197896,-0.0024744272,-18.793835,-37.306183,9.061601,221.02737,0.0,0.0,0.0,0.0,1007.98,29.6,43.967438,9999999.0,43.967438,9999999.0,-0.34458685,-0.35527176,-0.031622853,-0.39758265,-0.24932598,11.273797,-11.623348,-1.0668428,0.0031585693
18:37:33.431;0.03576202,-0.06013269,8.058634,0.37445903,-0.29197896,-0.0024744272,-18.807068,-37.296947,9.052481,221.00546,0.0,0.0,0.0,0.0,1007.92,29.6,44.46947,9999999.0,44.46947,9999999.0,-0.34167102,-0.3516544,-0.030588415,-0.42752302,-0.2542543,11.28915,-11.63532,-1.0669442,0.02507019
18:37:33.473;0.03627106,-0.06342904,8.063472,0.37445903,-0.2309438,-0.1855799,-18.817654,-37.28956,9.045185,220.98795,0.0,0.0,0.0,0.0,1007.98,29.6,43.967438,9999999.0,43.967438,9999999.0,-0.33822232,-0.34611788,-0.02922675,-0.45068735,-0.25771782,11.304877,-11.64502,-1.0670482,0.04258728
18:37:33.506;0.04433974,-0.07372757,8.052019,0.06928325,-0.10887349,-0.0024744272,-18.826122,-37.283646,9.039349,220.9739,0.0,0.0,0.0,0.0,1007.98,29.6,43.967438,9999999.0,43.967438,9999999.0,-0.3475148,-0.35028863,-0.033329494,-0.5246009,-0.315492,11.307095,-11.648503,-1.0729867,0.056625366
18:37:33.533;0.043133236,-0.0666435,8.050519,0.25238872,-0.47508442,-0.12454474,-18.832897,-37.278915,9.034679,220.96269,0.0,0.0,0.0,0.0,1007.92,29.6,44.46947,9999999.0,44.46947,9999999.0,-0.34584305,-0.35810184,-0.031373993,-0.47428608,-0.30696705,11.314161,-11.661806,-1.073056,0.067840576
18:37:33.568;0.042168036,-0.06863769,8.041657,0.31342387,-0.2309438,-0.0024744272,-18.838318,-37.293533,9.049343,220.9651,0.0,0.0,0.0,0.0,1008.02997,29.6,43.549957,9999999.0,43.549957,9999999.0,-0.34996969,-0.35690024,-0.033709805,-0.48901618,-0.30042815,11.325131,-11.669889,-1.077415,0.06542969
18:37:33.605;0.03373443,-0.0625716,8.057552,0.37445903,-0.29197896,-0.12454474,-18.842655,-37.305225,9.061074,220.96701,0.0,0.0,0.0,0.0,1007.98,29.6,43.967438,9999999.0,43.967438,9999999.0,-0.3450828,-0.3535657,-0.031854887,-0.44492236,-0.23987071,11.338986,-11.680693,-1.0775065,0.06352234
18:37:33.661;0.026987543,-0.06538017,8.054945,0.25238872,-0.3530141,0.05856073,-18.864525,-37.31458,9.08886,220.94604,0.0,0.0,0.0,0.0,1007.95996,29.6,44.1339,9999999.0,44.1339,9999999.0,-0.34194416,-0.35831788,-0.036363047,-0.46504408,-0.19195856,11.35312,-11.700461,-1.084481,0.084487915
18:37:33.694;0.02925148,-0.05996558,8.060521,0.37445903,-0.5361196,0.05856073,-18.882019,-37.322063,9.074287,220.92929,0.0,0.0,0.0,0.0,1007.92,29.6,44.46947,9999999.0,44.46947,9999999.0,-0.34756625,-0.36211142,-0.03171709,-0.42623654,-0.20791864,11.365477,-11.718153,-1.0825485,0.101242065
18:37:33.725;0.038724076,-0.05563391,8.064981,0.43549418,-0.41404927,0.05856073,-18.896015,-37.328053,9.06263,220.91588,0.0,0.0,0.0,0.0,1007.86,29.6,44.9715,9999999.0,44.9715,9999999.0,-0.3495434,-0.3606333,-0.027010586,-0.3952273,-0.27509752,11.378977,-11.7309885,-1.0807331,0.11465454
18:37:33.781;0.038640708,-0.059830017,8.060888,0.43549418,-0.41404927,-0.1855799,-18.888813,-37.332844,9.053304,220.92764,0.0,0.0,0.0,0.0,1007.95996,29.6,44.1339,9999999.0,44.1339,9999999.0,-0.33802575,-0.35948116,-0.021198764,-0.42525154,-0.27464363,11.403364,-11.754175,-1.0774536,0.102890015
18:37:33.841;0.03857401,-0.06318691,8.057614,0.49652934,-0.41404927,-0.06350958,-18.88305,-37.336674,9.064243,220.93706,0.0,0.0,0.0,0.0,1008.00995,29.6,43.716423,9999999.0,43.716423,9999999.0,-0.33208144,-0.3552715,-0.029817382,-0.44929272,-0.27428007,11.433156,-11.779018,-1.0885884,0.09347534
18:37:33.901;0.038520653,-0.05821097,8.062656,0.37445903,-0.29197896,0.18063104,-18.86004,-37.32134,9.054595,220.9557,0.0,0.0,0.0,0.0,1007.8,29.6,45.473534,9999999.0,45.473534,9999999.0,-0.33442092,-0.35037547,-0.031458817,-0.4136536,-0.2737307,11.455624,-11.796537,-1.0923989,0.0748291
18:37:33.916;0.030816521,-0.061891668,8.06669,0.37445903,-0.2309438,0.119595885,-18.841633,-37.30907,9.046876,220.97064,0.0,0.0,0.0,0.0,1007.95996,29.6,44.1339,9999999.0,44.1339,9999999.0,-0.34665525,-0.3474945,-0.026976552,-0.43958992,-0.2188749,11.461241,-11.800001,-1.0896894,0.059890747
18:37:33.956;0.032314662,-0.05717478,8.054594,0.25238872,-0.41404927,-0.06350958,-18.845306,-37.317657,9.059101,220.97145,0.0,0.0,0.0,0.0,1007.95996,29.6,44.1339,9999999.0,44.1339,9999999.0,-0.3390323,-0.35267383,-0.020684429,-0.4066986,-0.22986102,11.471084,-11.816149,-1.0850252,0.05908203
18:37:34.010;0.033513173,-0.061062716,8.052579,0.19135356,-0.3530141,-0.06350958,-18.848246,-37.324528,9.068881,220.9721,0.0,0.0,0.0,0.0,1007.92,29.6,44.46947,9999999.0,44.46947,9999999.0,-0.34399563,-0.36091208,-0.02252539,-0.4344619,-0.23844498,11.481608,-11.835565,-1.0885183,0.058425903
18:37:34.068;0.034471985,-0.05651162,8.058628,0.25238872,-0.29197896,-0.06350958,-18.850597,-37.311623,9.058305,220.96126,0.0,0.0,0.0,0.0,1007.92,29.6,44.46947,9999999.0,44.46947,9999999.0,-0.34960976,-0.36154008,-0.023739116,-0.40177986,-0.24508373,11.493976,-11.849872,-1.0916302,0.0692749
18:37:34.081;0.035239033,-0.060532186,8.071129,0.37445903,-0.29197896,-0.0024744272,-18.852478,-37.338097,9.049844,220.97531,0.0,0.0,0.0,0.0,1007.89996,29.6,44.635933,9999999.0,44.635933,9999999.0,-0.35482988,-0.3590313,-0.023529172,-0.4296971,-0.25014818,11.5022135,-11.856296,-1.0930275,0.055221558
18:37:34.173;0.03585267,-0.056087196,8.073468,0.31342387,-0.47508442,0.119595885,-18.853983,-37.340878,9.061475,220.97519,0.0,0.0,0.0,0.0,1008.00995,29.6,43.716423,9999999.0,43.716423,9999999.0,-0.33186013,-0.3726796,-0.022172388,-0.3980292,-0.25443137,11.530735,-11.8995285,-1.0932527,0.055343628
18:37:34.206;0.036343582,-0.04486976,8.060017,0.43549418,-0.3530141,-0.0024744272,-18.855186,-37.3431,9.07078,220.97508,0.0,0.0,0.0,0.0,1007.98,29.6,43.967438,9999999.0,43.967438,9999999.0,-0.35752127,-0.36695427,-0.016752202,-0.31895655,-0.25834778,11.545106,-11.911178,-1.089306,0.05545044
18:37:34.324;0.03673631,-0.043557253,8.049255,0.37445903,-0.5361196,-0.0024744272,-18.85615,-37.32648,9.041424,220.96364,0.0,0.0,0.0,0.0,1007.86,29.6,44.9715,9999999.0,44.9715,9999999.0,-0.32251355,-0.38328993,-0.015365412,-0.31004065,-0.2614888,11.589293,-11.97444,-1.089598,0.06689453
18:37:34.385;0.037050493,-0.050168693,8.055969,0.31342387,-0.29197896,0.05856073,-18.85692,-37.331585,9.054739,220.96585,0.0,0.0,0.0,0.0,1007.89996,29.6,44.635933,9999999.0,44.635933,9999999.0,-0.36371654,-0.37945294,-0.013914812,-0.3568021,-0.2635041,11.608725,-11.992542,-1.0897514,0.06468201
18:37:34.568;0.044963285,-0.055457845,8.0536785,0.1303184,-0.2309438,0.119595885,-18.875937,-37.35407,9.046991,220.9565,0.0,0.0,0.0,0.0,1007.98,29.6,43.967438,9999999.0,43.967438,9999999.0,-0.35638314,-0.39707032,-0.0016535235,-0.39452788,-0.31986856,11.632573,-12.034805,-1.0790348,0.074035645
18:37:34.586;0.043632075,-0.06735061,8.0518465,0.43549418,-0.41404927,0.18063104,-18.87275,-37.335255,9.040793,220.94876,0.0,0.0,0.0,0.0,1007.98,29.6,43.967438,9999999.0,43.967438,9999999.0,-0.39103156,-0.39672408,0.0021246537,-0.47923902,-0.31046566,11.640412,-12.042258,-1.0768821,0.08177185
18:37:34.601;0.05022855,-0.061541934,8.058043,0.49652934,-0.41404927,-0.0024744272,-18.851799,-37.338604,9.035835,220.97646,0.0,0.0,0.0,0.0,1008.00995,29.6,43.716423,9999999.0,43.716423,9999999.0,-0.390242,-0.39566627,0.005818979,-0.4375698,-0.35712928,11.647861,-12.048469,-1.0741726,0.05407715
18:37:34.650;0.047844287,-0.064556435,8.047676,0.25238872,-0.47508442,-0.0024744272,-18.85344,-37.34128,9.031868,220.9761,0.0,0.0,0.0,0.0,1007.83997,29.6,45.137966,9999999.0,45.137966,9999999.0,-0.3848251,-0.40675443,0.0066723386,-0.45959437,-0.3406145,11.660228,-12.071748,-1.0742939,0.0544281
18:37:34.721;0.053598322,-0.06696804,8.047045,0.1303184,-0.59715474,0.05856073,-18.836351,-37.343426,9.047094,220.99832,0.0,0.0,0.0,0.0,1007.89996,29.6,44.635933,9999999.0,44.635933,9999999.0,-0.39921546,-0.4398281,0.007013372,-0.47679767,-0.38160667,11.66935,-12.113548,-1.0744671,0.032211304
18:37:34.748;0.050540105,-0.061235875,8.054201,0.1303184,-0.29197896,-0.1855799,-18.859482,-37.345142,9.040875,220.9711,0.0,0.0,0.0,0.0,1007.98,29.6,43.967438,9999999.0,43.967438,9999999.0,-0.43616763,-0.4426465,0.00966867,-0.4356013,-0.35951585,11.672998,-12.121724,-1.0728273,0.059432983
18:37:34.804;0.048093528,-0.064311594,8.044603,0.37445903,-0.29197896,-0.0024744272,-18.877985,-37.328114,9.0543,220.93796,0.0,0.0,0.0,0.0,1007.89996,29.6,44.635933,9999999.0,44.635933,9999999.0,-0.42240378,-0.43682992,0.0011421705,-0.45802614,-0.34251973,11.693968,-12.138075,-1.0832198,0.09257507
18:37:34.849;0.046136267,-0.06677216,8.044586,0.37445903,-0.29197896,0.05856073,-18.892788,-37.31449,9.065041,220.91144,0.0,0.0,0.0,0.0,1007.98,29.6,43.967438,9999999.0,43.967438,9999999.0,-0.42109072,-0.43211678,0.0033920994,-0.47555116,-0.3285804,11.710818,-12.151214,-1.0833311,0.11909485
18:37:34.887;0.04457046,-0.06874062,8.0598955,0.37445903,-0.29197896,-0.12454474,-18.90463,-37.321995,9.055233,220.90161,0.0,0.0,0.0,0.0,1007.86,29.6,44.9715,9999999.0,44.9715,9999999.0,-0.4196694,-0.42819968,0.008026098,-0.48864055,-0.3168255,11.724673,-12.162017,-1.0811644,0.12892151
18:37:34.926;0.043317813,-0.07031539,8.072143,0.25238872,-0.3530141,0.119595885,-18.914104,-37.327995,9.047386,220.89375,0.0,0.0,0.0,0.0,1007.95996,29.6,44.1339,9999999.0,44.1339,9999999.0,-0.41972357,-0.43131632,0.0057190154,-0.4990763,-0.30745366,11.734769,-12.176137,-1.0861461,0.13677979
18:37:34.961;0.034654252,-0.063913755,8.074279,0.37445903,-0.16990864,-0.06350958,-18.903284,-37.314396,9.0779085,220.89856,0.0,0.0,0.0,0.0,1007.98,29.6,43.967438,9999999.0,43.967438,9999999.0,-0.4189165,-0.42128405,0.012346236,-0.45352387,-0.24590035,11.747875,-12.182084,-1.0819602,0.13197327
18:37:35.051;0.03538485,-0.0664539,8.075988,0.31342387,-0.10887349,-0.0024744272,-18.894627,-37.303516,9.083927,220.9024,0.0,0.0,0.0,0.0,1008.02997,29.6,43.549957,9999999.0,43.549957,9999999.0,-0.39495048,-0.40156806,0.0091225635,-0.47144762,-0.2510307,11.77577,-12.191773,-1.0876125,0.12812805
18:37:35.084;0.035969324,-0.060824562,8.085016,0.37445903,-0.47508442,-0.06350958,-18.887701,-37.313213,9.088741,220.91687,0.0,0.0,0.0,0.0,1007.95996,29.6,44.1339,9999999.0,44.1339,9999999.0,-0.38968036,-0.40281442,0.011130917,-0.43103072,-0.25489357,11.788502,-12.207927,-1.0876967,0.11366272
18:37:35.122;0.036436904,-0.06398254,8.069255,0.31342387,-0.59715474,0.18063104,-18.88216,-37.320972,9.092593,220.92844,0.0,0.0,0.0,0.0,1007.98,29.6,43.967438,9999999.0,43.967438,9999999.0,-0.3921721,-0.41174093,0.010585131,-0.45429415,-0.2587105,11.800412,-12.2306185,-1.0901101,0.10209656
18:37:35.155;0.029149523,-0.058847476,8.07963,0.31342387,-0.29197896,-0.12454474,-18.877728,-37.32718,9.077274,220.9377,0.0,0.0,0.0,0.0,1007.92,29.6,44.46947,9999999.0,44.46947,9999999.0,-0.401716,-0.40725836,0.018071724,-0.4173001,-0.20670415,11.810755,-12.240253,-1.0841492,0.09283447
18:37:35.186;0.030981064,-0.06240087,8.080269,0.31342387,-0.29197896,0.05856073,-18.874182,-37.33214,9.06502,220.9451,0.0,0.0,0.0,0.0,1007.89996,29.6,44.635933,9999999.0,44.635933,9999999.0,-0.39874777,-0.40375048,0.015757352,-0.44246167,-0.21967371,11.820157,-12.249013,-1.0878856,0.08543396
18:37:35.218;0.032446295,-0.072905034,8.088442,0.43549418,-0.41404927,-0.0024744272,-18.871346,-37.336113,9.073616,220.95102,0.0,0.0,0.0,0.0,1007.95996,29.6,44.1339,9999999.0,44.1339,9999999.0,-0.3919199,-0.40206844,0.018926328,-0.5164164,-0.22982799,11.834528,-12.262676,-1.0859531,0.07951355
18:37:35.271;0.03361848,-0.06598547,8.087318,0.37445903,-0.47508442,-0.0024744272,-18.869076,-37.33929,9.080493,220.95575,0.0,0.0,0.0,0.0,1007.86,29.6,44.9715,9999999.0,44.9715,9999999.0,-0.38392705,-0.40568772,0.019914944,-0.46746922,-0.23816569,11.854374,-12.287856,-1.0860842,0.074783325
18:37:35.320;0.03455623,-0.06811127,8.078758,0.43549418,-0.2309438,-0.0024744272,-18.848862,-37.323433,9.085995,220.97067,0.0,0.0,0.0,0.0,1007.92,29.6,44.46947,9999999.0,44.46947,9999999.0,-0.38632232,-0.39458716,0.020595027,-0.48303962,-0.24506782,11.875713,-12.299172,-1.0862055,0.05986023
18:37:35.339;0.042967875,-0.062150463,8.079572,0.43549418,-0.29197896,-0.06350958,-18.83269,-37.329147,9.071996,220.99399,0.0,0.0,0.0,0.0,1007.89996,29.6,44.635933,9999999.0,44.635933,9999999.0,-0.38782772,-0.3913155,0.020870373,-0.4407212,-0.30469212,11.883553,-12.304428,-1.0862501,0.0365448
18:37:35.390;0.042035744,-0.057381816,8.080222,0.31342387,-0.29197896,-0.0024744272,-18.819752,-37.333717,9.060797,221.01263,0.0,0.0,0.0,0.0,1007.95996,29.6,44.1339,9999999.0,44.1339,9999999.0,-0.37565458,-0.38898194,0.01757449,-0.40687448,-0.29805967,11.899851,-12.319611,-1.0895525,0.01789856
18:37:35.407;0.04129004,-0.061228342,8.06542,0.31342387,-0.3530141,-0.06350958,-18.8278,-37.318974,9.070237,220.99368,0.0,0.0,0.0,0.0,1007.95996,29.6,44.1339,9999999.0,44.1339,9999999.0,-0.38467956,-0.38873336,0.017918773,-0.43494475,-0.2933085,11.905179,-12.325612,-1.0895946,0.036849976
18:37:35.467;0.048354924,-0.064305566,8.076563,0.5575645,-0.3530141,-0.06350958,-18.83424,-37.32558,9.05939,220.98988,0.0,0.0,0.0,0.0,1008.00995,29.6,43.716423,9999999.0,43.716423,9999999.0,-0.35784373,-0.3779585,0.014701261,-0.45617098,-0.3430187,11.938075,-12.34644,-1.0933417,0.040649414
18:37:35.532;0.046345383,-0.07442879,8.070154,0.31342387,-0.3530141,0.119595885,-18.839392,-37.330864,9.050713,220.98685,0.0,0.0,0.0,0.0,1007.92,29.6,44.46947,9999999.0,44.46947,9999999.0,-0.36069506,-0.38289452,0.011173154,-0.52839935,-0.3290213,11.958761,-12.36974,-1.0975333,0.043685913
18:37:35.579;0.052399196,-0.07486592,8.065027,0.25238872,-0.2309438,-0.06350958,-18.843513,-37.316692,9.04377,220.97305,0.0,0.0,0.0,0.0,1008.00995,29.6,43.716423,9999999.0,43.716423,9999999.0,-0.37424836,-0.38484535,0.017607873,-0.53183794,-0.37223446,11.970623,-12.380594,-1.0919124,0.05747986
18:37:35.650;0.0495808,-0.07521563,8.068586,0.37445903,-0.29197896,0.05856073,-18.81001,-37.286953,9.038216,220.9957,0.0,0.0,0.0,0.0,1007.95996,29.6,44.1339,9999999.0,44.1339,9999999.0,-0.36177534,-0.38189688,0.013533435,-0.5340876,-0.35205814,11.99721,-12.401325,-1.0964216,0.034835815
18:37:35.746;0.047326088,-0.06783395,8.071434,0.37445903,-0.3530141,-0.06350958,-18.82001,-37.29996,9.033772,220.99149,0.0,0.0,0.0,0.0,1008.00995,29.6,43.716423,9999999.0,43.716423,9999999.0,-0.34902695,-0.38163066,0.019495714,-0.48150563,-0.33593264,12.0327835,-12.434861,-1.0908583,0.03904724
18:37:35.790;0.045522317,-0.069590054,8.05839,0.25238872,-0.3530141,0.05856073,-18.828007,-37.310368,9.030218,220.98811,0.0,0.0,0.0,0.0,1007.98,29.6,43.967438,9999999.0,43.967438,9999999.0,-0.37276313,-0.3873488,0.017153416,-0.49477053,-0.32365173,12.044141,-12.450747,-1.0937163,0.042419434
18:37:36.171;0.0440793,-0.070994936,8.0786,0.43549418,-0.41404927,0.05856073,-18.816006,-37.300293,9.027374,220.99658,0.0,0.0,0.0,0.0,1008.00995,29.6,43.716423,9999999.0,43.716423,9999999.0,-0.22749372,-0.38338798,0.03929738,-0.5034963,-0.31260803,12.209629,-12.608086,-1.0714632,0.033950806
18:37:36.263;0.042924885,-0.064457394,8.071783,0.25238872,-0.10887349,-0.0024744272,-18.824804,-37.292236,9.0067,220.98083,0.0,0.0,0.0,0.0,1007.92,29.6,44.46947,9999999.0,44.46947,9999999.0,-0.3618679,-0.37064686,0.044842612,-0.45752046,-0.3046803,12.233101,-12.618211,-1.066017,0.049697876
