17:35:45.378;[m/s²] X,[m/s²] Y,[m/s²] Z,[°/s] X,[°/s] Y,[°/s] Z,[µT] X,[µT] Y,[µT] Z,[µT] Direção,[RPM] 1,[RPM] 2,[RPM] 3,[RPM] 4,[hPa],[°C],[m] Baro ,[cm] Down,[m] Abs,[m] Rel,[°] X,[°] Y,[°] Z,[°] Acce X,[°] Acce Y,[°] Gyro X,[°] Gyro Y,[°] Gyro Z,[°] Mag Z
17:35:45.379;0.038307227,-0.038307227,8.082825,0.43549418,-0.5361196,-0.0024744272,-18.676,-36.708,9.108,220.79938,0.0,0.0,0.0,0.0,1007.66,29.9,46.644062,0.0,46.644062,0.0,-0.005430773,-0.01075293,0.0,-0.2715389,-0.2715389,0.0,0.0,0.0,0.0
17:35:45.407;0.038307227,-0.038307227,8.075163,0.25238872,-0.47508442,-0.06350958,-18.676,-36.708,9.108,220.79938,0.0,0.0,0.0,0.0,1007.57996,29.8,47.312557,9999999.0,47.312557,9999999.0,-0.008058886,-0.028232282,-7.7598044E-5,-0.27179652,-0.27179652,0.00807644,-0.015202702,-7.918168E-5,0.0
17:35:45.438;0.053630117,-0.045968674,8.069034,0.31342387,-0.29197896,0.119595885,-18.676,-36.7448,9.1264,220.82257,0.0,0.0,0.0,0.0,1007.63995,29.8,46.810524,9999999.0,46.810524,9999999.0,-0.024366638,-0.04065175,-0.0025315736,-0.32639897,-0.38079953,0.018106004,-0.024546029,-0.0021114885,-0.02319336
17:35:45.468;0.042904094,-0.044436384,8.071792,0.25238872,-0.16990864,0.05856073,-18.676,-36.77424,9.14112,220.8411,0.0,0.0,0.0,0.0,1007.63995,29.9,46.810524,9999999.0,46.810524,9999999.0,-0.038726762,-0.049038284,2.0082702E-4,-0.31541392,-0.30453748,0.025677666,-0.029643288,0.001476388,-0.04171753
17:35:45.497;0.041984722,-0.050871998,8.058676,0.31342387,-0.16990864,-0.0024744272,-18.676,-36.779392,9.152896,220.84435,0.0,0.0,0.0,0.0,1007.66,29.9,46.644062,9999999.0,46.644062,9999999.0,-0.046383634,-0.05625467,9.617542E-4,-0.3616813,-0.2984954,0.034766957,-0.034570638,0.003174649,-0.04496765
17:35:45.531;0.041249223,-0.05602049,8.055844,0.43549418,-0.3530141,0.119595885,-18.676,-36.783512,9.162316,220.84692,0.0,0.0,0.0,0.0,1007.63995,29.8,46.810524,9999999.0,46.810524,9999999.0,-0.04858739,-0.065245435,-9.085558E-5,-0.39842427,-0.29336822,0.04957376,-0.046573117,0.0030905185,-0.047546387
17:35:45.560;0.040660825,-0.060139284,8.0459175,0.19135356,-0.16990864,0.05856073,-18.6944,-36.76841,9.169853,220.81464,0.0,0.0,0.0,0.0,1007.72,29.9,46.14203,9999999.0,46.14203,9999999.0,-0.06725467,-0.07636265,0.0028874972,-0.42824438,-0.28953922,0.05493166,-0.05133056,0.0064392034,-0.015258789
17:35:45.587;0.040190104,-0.05577287,8.045637,0.43549418,-0.29197896,-0.0024744272,-18.709122,-36.75633,9.175882,220.78882,0.0,0.0,0.0,0.0,1007.66,29.9,46.644062,9999999.0,46.644062,9999999.0,-0.07082876,-0.08314805,0.0046478356,-0.3971667,-0.28619844,0.0671255,-0.05950597,0.008078904,0.010559082
17:35:45.618;0.03981353,-0.05227974,8.053075,0.19135356,-0.41404927,0.05856073,-18.720898,-36.746662,9.180706,220.76813,0.0,0.0,0.0,0.0,1007.63995,29.9,46.810524,9999999.0,46.810524,9999999.0,-0.08329826,-0.09947046,0.00510713,-0.3719486,-0.28325585,0.072866105,-0.07192744,0.008004671,0.03125
17:35:45.645;0.03951227,-0.049485236,8.059025,0.37445903,-0.5361196,0.05856073,-18.711918,-36.757328,9.184565,220.78598,0.0,0.0,0.0,0.0,1007.63995,29.9,46.810524,9999999.0,46.810524,9999999.0,-0.09424204,-0.112686425,0.006879838,-0.3518075,-0.28090563,0.08335096,-0.08693879,0.009644371,0.013397217
17:35:45.673;0.03927126,-0.062572524,8.056124,0.19135356,-0.3530141,0.05856073,-18.704735,-36.76586,9.187652,220.80025,0.0,0.0,0.0,0.0,1007.6,29.8,47.14609,9999999.0,47.14609,9999999.0,-0.114082076,-0.12707293,0.008331752,-0.44500643,-0.27928963,0.088708855,-0.096823186,0.011284072,-8.69751E-4
17:35:45.701;0.039078455,-0.057719465,8.03848,0.43549418,-0.3530141,-0.0024744272,-18.680588,-36.77269,9.190122,220.83444,0.0,0.0,0.0,0.0,1007.66,29.9,46.644062,9999999.0,46.644062,9999999.0,-0.12080939,-0.13365051,0.009070731,-0.41139445,-0.27852967,0.10090269,-0.10670758,0.012923772,-0.035064697
17:35:45.734;0.03892421,-0.053837016,8.047349,0.43549418,-0.41404927,-0.06350958,-18.66127,-36.778152,9.192098,220.86182,0.0,0.0,0.0,0.0,1007.66,29.9,46.644062,9999999.0,46.644062,9999999.0,-0.124559626,-0.14100128,0.007560515,-0.38330036,-0.2771255,0.115274,-0.12037121,0.012842116,-0.062438965
17:35:45.772;0.038800813,-0.058392502,8.0467825,0.25238872,-0.5361196,-0.06350958,-18.645817,-36.764122,9.212078,220.87213,0.0,0.0,0.0,0.0,1007.63995,29.9,46.810524,9999999.0,46.810524,9999999.0,-0.13709754,-0.15984598,0.0035891312,-0.415762,-0.27626532,0.12486477,-0.14074375,0.010428752,-0.072753906
17:35:45.810;0.038702097,-0.054375447,8.0463295,0.1303184,-0.3530141,-0.06350958,-18.633453,-36.7529,9.228063,220.88042,0.0,0.0,0.0,0.0,1007.66,29.9,46.644062,9999999.0,46.644062,9999999.0,-0.15953964,-0.17500666,-4.6853535E-4,-0.38718277,-0.27557895,0.12981687,-0.15415828,0.008015388,-0.08103943
17:35:45.835;0.038623124,-0.051161803,8.053629,0.49652934,-0.29197896,0.2416662,-18.641962,-36.762318,9.22245,220.8758,0.0,0.0,0.0,0.0,1007.63995,29.9,46.810524,9999999.0,46.810524,9999999.0,-0.16662095,-0.17593737,-0.0035434682,-0.36397037,-0.2747681,0.14223011,-0.16145775,0.006427648,-0.076416016
17:35:45.965;0.04622139,-0.048590887,8.059468,0.31342387,-0.2309438,0.05856073,-18.66717,-36.769855,9.21796,220.84927,0.0,0.0,0.0,0.0,1007.57996,29.9,47.312557,9999999.0,47.312557,9999999.0,-0.139397,-0.17260298,0.026317753,-0.3454289,-0.32858413,0.1829752,-0.19148044,0.037844256,-0.04989624
17:35:46.001;0.04463856,-0.0541956,8.0564785,0.31342387,-0.3530141,-0.1855799,-18.687336,-36.794285,9.232768,220.83966,0.0,0.0,0.0,0.0,1007.57996,29.9,47.312557,9999999.0,47.312557,9999999.0,-0.16610877,-0.18124396,0.026994368,-0.38541463,-0.3174485,0.19394504,-0.20383593,0.03989388,-0.040283203
17:35:46.041;0.03571085,-0.06634082,8.054087,0.43549418,-0.47508442,-0.12454474,-18.66667,-36.777027,9.207814,220.85442,0.0,0.0,0.0,0.0,1007.63995,29.9,46.810524,9999999.0,46.810524,9999999.0,-0.16998619,-0.19029042,0.018078981,-0.47192508,-0.25403228,0.2113648,-0.22283931,0.032470684,-0.055038452
17:35:46.080;0.036230125,-0.06839555,8.052173,0.25238872,-0.2309438,-0.0024744272,-18.650137,-36.76322,9.187851,220.86621,0.0,0.0,0.0,0.0,1007.6,29.9,47.14609,9999999.0,47.14609,9999999.0,-0.1863241,-0.19680636,0.011498579,-0.48665652,-0.25778687,0.22146036,-0.23207706,0.027488895,-0.066833496
17:35:46.121;0.036645547,-0.062377885,8.058303,0.49652934,-0.3530141,-0.0024744272,-18.65531,-36.78898,9.227081,220.876,0.0,0.0,0.0,0.0,1007.6,29.9,47.14609,9999999.0,47.14609,9999999.0,-0.18227632,-0.19767986,0.009639019,-0.44350296,-0.2605459,0.24132153,-0.24619763,0.027389918,-0.07662964
17:35:46.184;0.036977883,-0.0652252,8.055546,0.31342387,-0.16990864,-0.0024744272,-18.659449,-36.80958,9.221665,220.88382,0.0,0.0,0.0,0.0,1007.6,29.9,47.14609,9999999.0,47.14609,9999999.0,-0.18334642,-0.19559613,0.0076022022,-0.46390495,-0.26299798,0.26138067,-0.2570718,0.027231554,-0.08444214
17:35:46.214;0.037243754,-0.06750305,8.061002,0.37445903,-0.47508442,0.119595885,-18.66276,-36.826065,9.217332,220.89005,0.0,0.0,0.0,0.0,1007.66,29.9,46.644062,9999999.0,46.644062,9999999.0,-0.19027069,-0.20572694,0.0055640573,-0.4797801,-0.26470903,0.27261445,-0.27132434,0.027157322,-0.090667725
17:35:46.244;0.03745645,-0.06932533,8.050043,0.37445903,-0.3530141,-0.0024744272,-18.683807,-36.82085,9.232265,220.86073,0.0,0.0,0.0,0.0,1007.57996,29.9,47.312557,9999999.0,47.312557,9999999.0,-0.20047133,-0.21217217,0.0077417847,-0.493402,-0.2665826,0.28384823,-0.28191477,0.030745197,-0.06135559
17:35:46.279;0.037626605,-0.07078315,8.041277,0.37445903,-0.2309438,0.18063104,-18.700645,-36.81668,9.244212,220.83728,0.0,0.0,0.0,0.0,1007.66,29.9,46.644062,9999999.0,46.644062,9999999.0,-0.20553827,-0.21448426,0.0067464453,-0.5043262,-0.2680851,0.29657984,-0.28976685,0.030661067,-0.037902832
17:35:46.481;0.045424175,-0.06428797,8.049586,0.19135356,-0.47508442,-0.12454474,-18.695717,-36.831745,9.25377,220.85284,0.0,0.0,0.0,0.0,1007.69995,29.9,46.30849,9999999.0,46.30849,9999999.0,-0.1812782,-0.2786321,0.04147692,-0.45757535,-0.32330889,0.3354246,-0.38620898,0.06732917,-0.053466797
17:35:46.521;0.044000786,-0.05909182,8.040911,0.25238872,-0.16990864,0.119595885,-18.710175,-36.825397,9.243016,220.83096,0.0,0.0,0.0,0.0,1007.72,29.9,46.14203,9999999.0,46.14203,9999999.0,-0.27158678,-0.27908581,0.035133515,-0.42104688,-0.31351748,0.34552014,-0.39300534,0.06234738,-0.031585693
17:35:46.563;0.042862073,-0.054934904,8.0492935,0.25238872,-0.47508442,-0.0024744272,-18.70334,-36.820316,9.216013,220.83623,0.0,0.0,0.0,0.0,1007.54,29.9,47.648125,9999999.0,47.648125,9999999.0,-0.27093622,-0.2911737,0.03861641,-0.39102122,-0.3050871,0.35612047,-0.4129589,0.06737041,-0.036849976
17:35:46.601;0.041951105,-0.051609367,8.040677,0.37445903,-0.47508442,0.119595885,-18.697872,-36.816254,9.19441,220.84044,0.0,0.0,0.0,0.0,1007.72,29.9,46.14203,9999999.0,46.14203,9999999.0,-0.27912724,-0.29674974,0.03693313,-0.36774492,-0.29892382,0.36997545,-0.43053702,0.067278855,-0.0410614
17:35:46.666;0.048883773,-0.056610383,8.056768,0.25238872,-0.41404927,0.119595885,-18.693499,-36.849804,9.195528,220.86691,0.0,0.0,0.0,0.0,1007.6,29.9,47.14609,9999999.0,47.14609,9999999.0,-0.2840257,-0.30964378,0.041875996,-0.4025712,-0.34762454,0.38511878,-0.45537996,0.074454606,-0.0675354
17:35:46.696;0.046768464,-0.060611196,8.084964,0.25238872,-0.47508442,-0.0024744272,-18.708399,-36.895042,9.159622,220.87686,0.0,0.0,0.0,0.0,1007.6,29.9,47.14609,9999999.0,47.14609,9999999.0,-0.303137,-0.3204637,0.04370814,-0.42951864,-0.33142146,0.39420477,-0.472483,0.07876006,-0.07748413
17:35:46.862;0.05273766,-0.048488956,8.092197,0.19135356,-0.41404927,-0.24661505,-18.68352,-36.820835,9.167698,220.86108,0.0,0.0,0.0,0.0,1007.63995,29.9,46.810524,9999999.0,46.810524,9999999.0,-0.2897912,-0.3588207,0.041197307,-0.3433085,-0.37339035,0.42596945,-0.5412152,0.0783493,-0.061706543
17:35:46.893;0.11114314,-0.0617755,8.082662,0.25238872,-0.7802602,0.2416662,-18.682016,-36.927067,9.192558,220.92947,0.0,0.0,2295.684,0.0,1007.66,29.9,46.644062,9999999.0,46.644062,9999999.0,-0.35298124,-0.3846171,0.030520953,-0.43785974,-0.7877907,0.43354112,-0.564623,0.07095085,-0.13009644
17:35:46.985;0.08125307,-0.08772763,8.067371,0.31342387,-0.47508442,0.119595885,-18.662413,-37.067253,9.120446,221.04102,0.0,0.0,8792.498,0.0,1007.51996,29.8,47.81459,9999999.0,47.81459,9999999.0,-0.36081928,-0.40844244,0.047103237,-0.62299967,-0.57701886,0.46268955,-0.60880584,0.09342581,-0.24163818
17:35:47.046;0.072663896,-0.085504994,8.0628,0.25238872,-0.41404927,-0.1855799,-18.66513,-37.050602,9.081157,221.02731,0.0,0.0,0.0,0.0,1007.69995,29.9,46.30849,9999999.0,46.30849,9999999.0,-0.39733714,-0.42446864,0.0487519,-0.60756713,-0.51632035,0.47808525,-0.6340628,0.10072116,-0.22793579
17:35:47.079;0.058131117,-0.11437267,8.043821,0.49652934,-0.41404927,-0.0024744272,-18.667305,-36.96368,9.104925,220.97052,0.0,0.0,0.0,0.0,1007.66,29.9,46.644062,9999999.0,46.644062,9999999.0,-0.4162134,-0.4295598,0.038352363,-0.8145953,-0.4140163,0.49447072,-0.6477265,0.09459702,-0.17114258
17:35:47.106;0.06948923,-0.11448247,8.036299,0.43549418,-0.29197896,0.18063104,-18.669044,-36.894146,9.12394,220.92493,0.0,0.0,0.0,0.0,1007.66,29.9,46.644062,9999999.0,46.644062,9999999.0,-0.42576802,-0.4348858,0.03500886,-0.8161311,-0.49536943,0.50622904,-0.6556099,0.09453021,-0.12554932
17:35:47.133;0.055591386,-0.12223176,8.037943,0.31342387,-0.16990864,-0.49075568,-18.670435,-36.838516,9.139153,220.88837,0.0,0.0,2297.0903,0.0,1007.66,29.9,46.644062,9999999.0,46.644062,9999999.0,-0.43531886,-0.4390325,0.037308395,-0.8712001,-0.39621243,0.5146915,-0.66019744,0.09940725,-0.08898926
17:35:47.161;0.052134555,-0.10544685,8.069903,0.43549418,-0.2309438,-0.06350958,-18.671549,-36.94121,9.151322,220.95126,0.0,0.0,8923.26,0.0,1007.57996,29.9,47.312557,9999999.0,47.312557,9999999.0,-0.43327403,-0.43834794,0.020058174,-0.74860746,-0.37011513,0.52688533,-0.6666639,0.08566609,-0.15188599
17:35:47.191;0.0034004152,-0.09968037,8.049503,0.37445903,-0.2309438,0.119595885,-18.67244,-37.02337,9.161057,221.00137,0.0,0.0,0.0,0.0,1007.6,29.9,47.14609,9999999.0,47.14609,9999999.0,-0.4327615,-0.43138006,0.013749916,-0.7094813,-0.02420205,0.5381191,-0.6735922,0.083760805,-0.20199585
17:35:47.218;0.0027203322,-0.11039008,8.048506,0.19135356,-0.5361196,-0.24661505,-18.654753,-37.107494,9.132046,221.07541,0.0,0.0,0.0,0.0,1007.72,29.9,46.14203,9999999.0,46.14203,9999999.0,-0.43340516,-0.43931007,0.011118799,-0.78579664,-0.019363705,0.5432856,-0.68806744,0.086989895,-0.2760315
17:35:47.247;0.040483493,-0.1266193,8.063031,0.37445903,-0.29197896,0.2416662,-18.640602,-37.174797,9.108837,221.13448,0.0,0.0,0.0,0.0,1007.6,29.9,47.14609,9999999.0,47.14609,9999999.0,-0.4382421,-0.44324192,-0.002572653,-0.8996695,-0.28763723,0.5537705,-0.69624287,0.080084674,-0.33509827
17:35:47.276;0.032386795,-0.101295434,8.06699,0.25238872,-0.47508442,-0.3076502,-18.592482,-37.155037,9.108669,221.18158,0.0,0.0,0.0,0.0,1007.51996,29.9,47.81459,9999999.0,47.81459,9999999.0,-0.44159234,-0.45086253,-0.0032970821,-0.719407,-0.23000778,0.56108975,-0.7100203,0.087092996,-0.38220215
17:35:47.308;0.041232325,-0.09635924,8.062495,0.31342387,-0.41404927,-0.3076502,-18.553986,-37.13923,9.108536,221.21933,0.0,0.0,0.0,0.0,1007.66,29.9,46.644062,9999999.0,46.644062,9999999.0,-0.44540378,-0.4557459,-0.02157959,-0.68473125,-0.2929923,0.57143277,-0.72368395,0.07694054,-0.4199524
17:35:47.337;0.040647306,-0.107733175,8.051238,0.31342387,-0.2309438,-0.0024744272,-18.523188,-37.126583,9.108429,221.24957,0.0,0.0,0.0,0.0,1007.66,29.9,46.644062,9999999.0,46.644062,9999999.0,-0.4530558,-0.45634276,-0.038895316,-0.76661617,-0.28923386,0.58052206,-0.7303813,0.06801868,-0.4501953
17:35:47.368;0.06316362,-0.10150943,8.057555,0.49652934,-0.47508442,0.2416662,-18.553751,-37.024467,9.126743,221.14867,0.0,0.0,0.0,0.0,1007.6,29.9,47.14609,9999999.0,47.14609,9999999.0,-0.44705302,-0.46106145,-0.045175932,-0.7217544,-0.44909996,0.5954179,-0.74463385,0.06794445,-0.34928894
17:35:47.408;0.07351524,-0.08886899,8.062609,0.19135356,-0.59715474,0.18063104,-18.578201,-36.942776,9.141395,221.06766,0.0,0.0,2295.3328,0.0,1007.6,29.9,47.14609,9999999.0,47.14609,9999999.0,-0.4567813,-0.48208696,-0.039927863,-0.631483,-0.52237934,0.60326344,-0.7691172,0.07785277,-0.26828003
17:35:47.437;0.051150743,-0.09407953,8.066652,0.31342387,-0.16990864,-0.36868536,-18.579361,-37.00622,9.153115,221.10568,0.0,0.0,8923.26,0.0,1007.63995,29.9,46.810524,9999999.0,46.810524,9999999.0,-0.47690138,-0.47945783,-0.04012186,-0.6681839,-0.36328366,0.6123527,-0.7740445,0.08309107,-0.30630493
17:35:47.471;0.040920593,-0.082925074,8.077548,0.5575645,-0.47508442,-0.06350958,-18.58029,-37.056976,9.162492,221.136,0.0,0.0,0.0,0.0,1007.57996,29.9,47.312557,9999999.0,47.312557,9999999.0,-0.46305418,-0.47542772,-0.058336496,-0.5881771,-0.29024076,0.6313099,-0.7901974,0.07055577,-0.33662415
17:35:47.500;0.04039792,-0.074001506,8.070942,0.37445903,-0.3530141,0.2416662,-18.562632,-37.04238,9.169993,221.14877,0.0,0.0,0.0,0.0,1007.6,29.9,47.14609,9999999.0,47.14609,9999999.0,-0.4657834,-0.4722358,-0.06596262,-0.5253169,-0.2867712,0.64216924,-0.80043477,0.06871399,-0.34939575
17:35:47.728;0.047641225,-0.082185544,8.057996,0.31342387,-0.16990864,0.18063104,-18.585306,-36.993904,9.194395,221.09067,0.0,0.0,0.0,0.0,1007.6,29.9,47.14609,9999999.0,47.14609,9999999.0,-0.40444654,-0.44109654,-0.016471272,-0.58434373,-0.33872783,0.7136299,-0.8391739,0.12381388,-0.29129028
17:35:47.737;0.045774426,-0.081071325,8.062962,0.25238872,-0.29197896,-0.1855799,-18.585045,-36.955124,9.195516,221.06688,0.0,0.0,0.0,0.0,1007.6,29.9,47.14609,9999999.0,47.14609,9999999.0,-0.4415699,-0.44181886,-0.019898713,-0.5760679,-0.32525527,0.7159014,-0.8418017,0.12543955,-0.26750183
17:35:47.768;0.03661954,-0.072518505,8.059273,0.25238872,-0.47508442,-0.0024744272,-18.603235,-36.9241,9.196412,221.02505,0.0,0.0,0.0,0.0,1007.57996,29.9,47.312557,9999999.0,47.312557,9999999.0,-0.4356256,-0.4465527,-0.0296522,-0.5155365,-0.26032692,0.72372544,-0.8565293,0.11968658,-0.22567749
17:35:47.810;0.029295633,-0.0733377,8.063983,0.19135356,-0.29197896,-0.0024744272,-18.617788,-36.89928,9.197129,220.99155,0.0,0.0,0.0,0.0,1007.63995,29.9,46.810524,9999999.0,46.810524,9999999.0,-0.4403542,-0.44744164,-0.03300196,-0.52105725,-0.20814024,0.73157096,-0.8685004,0.11958513,-0.19216919
17:35:47.837;0.038759395,-0.07399305,8.067751,0.43549418,-0.10887349,-0.12454474,-18.62943,-36.879425,9.197703,220.96472,0.0,0.0,0.0,0.0,1007.69995,29.9,46.30849,9999999.0,46.30849,9999999.0,-0.43705213,-0.43680355,-0.035716698,-0.52546513,-0.27524886,0.7437648,-0.8715489,0.11951584,-0.16534424
17:35:47.861;0.03866896,-0.08217878,8.063105,0.19135356,-0.3530141,0.05856073,-18.638744,-36.86354,9.198163,220.94327,0.0,0.0,0.0,0.0,1007.54,29.9,47.648125,9999999.0,47.648125,9999999.0,-0.43524542,-0.44033867,-0.04080946,-0.58392894,-0.27476218,0.7483573,-0.8800212,0.11652677,-0.14389038
17:35:47.901;0.04625806,-0.081065916,8.059387,0.31342387,-0.3530141,0.18063104,-18.646196,-36.869232,9.18013,220.93759,0.0,0.0,0.0,0.0,1007.69995,29.9,46.30849,9999999.0,46.30849,9999999.0,-0.43077138,-0.44257084,-0.040461972,-0.5762847,-0.32883745,0.76089424,-0.8941418,0.1188692,-0.13821411
17:35:47.927;0.044667892,-0.08783707,8.056414,0.25238872,-0.41404927,-0.06350958,-18.652157,-36.873787,9.165704,220.93307,0.0,0.0,0.0,0.0,1007.63995,29.9,46.810524,9999999.0,46.810524,9999999.0,-0.44002882,-0.44772542,-0.037901223,-0.62464726,-0.31764796,0.7672039,-0.90449303,0.123384975,-0.13369751
17:35:47.952;0.035734314,-0.0779311,8.054034,0.43549418,-0.3530141,0.2416662,-18.675325,-36.859028,9.190963,220.89517,0.0,0.0,0.0,0.0,1007.63995,29.9,46.810524,9999999.0,46.810524,9999999.0,-0.43876195,-0.44406548,-0.040677313,-0.5543731,-0.2541976,0.7785268,-0.9136714,0.121733725,-0.09579468
17:35:47.989;0.043910343,-0.070006326,8.036808,0.37445903,-0.16990864,-0.0024744272,-18.693861,-36.84722,9.21117,220.86484,0.0,0.0,0.0,0.0,1007.6,29.9,47.14609,9999999.0,47.14609,9999999.0,-0.43158764,-0.43537736,-0.032410152,-0.499067,-0.31302935,0.79238176,-0.919958,0.13067538,-0.065460205
17:35:48.018;0.04278972,-0.071327955,8.046011,0.31342387,-0.3530141,-0.06350958,-18.690289,-36.837776,9.208936,220.86334,0.0,0.0,0.0,0.0,1007.63995,29.9,46.810524,9999999.0,46.810524,9999999.0,-0.42792043,-0.43548852,-0.033111565,-0.5079071,-0.30469146,0.80147105,-0.9301954,0.13060361,-0.063964844
17:35:48.050;0.04189322,-0.07238525,8.053373,0.37445903,-0.5361196,-0.06350958,-18.687431,-36.83022,9.207149,220.86212,0.0,0.0,0.0,0.0,1007.6,29.9,47.14609,9999999.0,47.14609,9999999.0,-0.42570198,-0.43943596,-0.03563364,-0.5149645,-0.29803488,0.8130793,-0.9468151,0.12863481,-0.06274414
17:35:48.077;0.04117602,-0.07323109,8.066925,0.06928325,-0.41404927,0.119595885,-18.685144,-36.824177,9.205719,220.86118,0.0,0.0,0.0,0.0,1007.72,29.9,46.14203,9999999.0,46.14203,9999999.0,-0.43914825,-0.4475756,-0.037899632,-0.5201068,-0.29244035,0.81501925,-0.9584085,0.12685654,-0.061798096
17:35:48.108;0.048263706,-0.07390776,8.054782,0.25238872,-0.41404927,-0.0024744272,-18.683315,-36.81934,9.204576,220.86038,0.0,0.0,0.0,0.0,1007.77997,29.9,45.639996,9999999.0,45.639996,9999999.0,-0.44147053,-0.45208582,-0.034728408,-0.52570117,-0.34329388,0.8228433,-0.971244,0.130564,-0.06100464
17:35:48.140;0.061595302,-0.05912621,8.045068,0.31342387,-0.5361196,-0.06350958,-18.681852,-36.81547,9.20366,220.85977,0.0,0.0,0.0,0.0,1007.69995,29.9,46.30849,9999999.0,46.30849,9999999.0,-0.4416365,-0.45838952,-0.03531932,-0.42106816,-0.4386522,0.83287287,-0.9883998,0.13048482,-0.060394287
17:35:48.172;0.056937687,-0.06262386,8.052619,0.43549418,-0.29197896,-0.06350958,-18.680681,-36.812378,9.202928,220.85928,0.0,0.0,0.0,0.0,1007.63995,29.9,46.810524,9999999.0,46.810524,9999999.0,-0.44447583,-0.4528448,-0.037802715,-0.44555947,-0.40510252,0.8468087,-0.9977431,0.12845251,-0.059906006
17:35:48.199;0.06087304,-0.065421976,8.050999,0.37445903,-0.3530141,-0.12454474,-18.679745,-36.809902,9.202342,220.85889,0.0,0.0,0.0,0.0,1007.72,29.9,46.14203,9999999.0,46.14203,9999999.0,-0.44355786,-0.45234522,-0.03985507,-0.46555883,-0.43318683,0.8565446,-1.0069215,0.12680127,-0.059509277
17:35:48.231;0.048698433,-0.059999026,8.049703,0.19135356,-0.2309438,-0.0024744272,-18.678995,-36.807922,9.220274,220.85857,0.0,0.0,0.0,0.0,1007.69995,29.9,46.30849,9999999.0,46.30849,9999999.0,-0.4456508,-0.45113868,-0.04426952,-0.42704242,-0.34660947,0.8628593,-1.0145427,0.12269129,-0.059188843
17:35:48.265;0.04662019,-0.06332211,8.056327,0.43549418,-0.41404927,0.05856073,-18.678396,-36.80634,9.234619,220.8583,0.0,0.0,0.0,0.0,1007.75995,29.9,45.80646,9999999.0,45.80646,9999999.0,-0.4366117,-0.44830647,-0.044645168,-0.4503236,-0.33154413,0.8776661,-1.0286204,0.12260716,-0.058929443
17:35:48.294;0.044957597,-0.06598058,8.053965,0.43549418,-0.3530141,-0.0024744272,-18.677917,-36.78667,9.209295,220.84654,0.0,0.0,0.0,0.0,1007.6,29.9,47.14609,9999999.0,47.14609,9999999.0,-0.43635094,-0.44405285,-0.043031264,-0.46936703,-0.31981358,0.89029545,-1.0388578,0.12430542,-0.047164917
17:35:48.325;0.043627523,-0.06810736,8.059736,0.19135356,-0.41404927,-0.0024744272,-18.677534,-36.770935,9.189036,220.83713,0.0,0.0,0.0,0.0,1007.69995,29.9,46.30849,9999999.0,46.30849,9999999.0,-0.43904144,-0.44904202,-0.043000817,-0.48414913,-0.31012917,0.8962274,-1.0516933,0.124228716,-0.037750244
17:35:48.363;0.042563464,-0.06980878,8.056692,0.37445903,-0.3530141,-0.12454474,-18.677227,-36.77675,9.191229,220.84116,0.0,0.0,0.0,0.0,1007.66,29.9,46.644062,9999999.0,46.644062,9999999.0,-0.43604493,-0.44652385,-0.043068524,-0.4964311,-0.30267915,0.91045684,-1.0651078,0.12413469,-0.041778564
17:35:48.422;0.06469655,-0.07883136,8.06958,0.19135356,-0.2309438,0.2416662,-18.676981,-36.7814,9.192983,220.84439,0.0,0.0,0.0,0.0,1007.66,29.9,46.644062,9999999.0,46.644062,9999999.0,-0.43772298,-0.45150822,-0.0503086,-0.55968404,-0.45932788,0.9217467,-1.0787336,0.11678655,-0.045013428
17:35:48.448;0.021111459,-0.09371087,8.072229,0.25238872,-0.59715474,-0.0024744272,-18.676785,-36.78512,9.1943865,220.84697,0.0,0.0,0.0,0.0,1007.66,29.9,46.644062,9999999.0,46.644062,9999999.0,-0.44959688,-0.45823196,-0.04433345,-0.6651171,-0.14983633,0.92805636,-1.0936624,0.1228282,-0.047592163
17:35:48.497;0.024550613,-0.08263014,8.059026,0.008248091,-0.29197896,-0.12454474,-18.676628,-36.843296,9.15871,220.8837,0.0,0.0,0.0,0.0,1007.75995,29.9,45.80646,9999999.0,45.80646,9999999.0,-0.46041998,-0.46872306,-0.045252003,-0.5874371,-0.17453328,0.92846054,-1.1079694,0.12270696,-0.08432007
17:35:48.725;0.0885935,-0.066104114,8.071447,0.31342387,-0.16990864,-0.24661505,-18.676502,-36.908237,9.148567,220.92453,0.0,0.0,0.0,0.0,1007.63995,29.9,46.810524,9999999.0,46.810524,9999999.0,-0.39839414,-0.44113398,-0.07480035,-0.4692063,-0.6288413,1.0002346,-1.1468785,0.09418621,-0.12515259
17:35:48.789;0.093859136,-0.07586763,8.073723,0.1303184,-0.3530141,-0.3076502,-18.621202,-36.978592,9.140453,221.03677,0.0,0.0,0.0,0.0,1007.6,29.9,47.14609,9999999.0,47.14609,9999999.0,-0.43490466,-0.46166798,-0.093519956,-0.5383481,-0.66601896,1.008575,-1.1694714,0.07840285,-0.23739624
17:35:48.825;0.082748756,-0.08367844,8.075543,0.37445903,-0.41404927,0.18063104,-18.576962,-37.034874,9.133963,221.12642,0.0,0.0,0.0,0.0,1007.57996,29.9,47.312557,9999999.0,47.312557,9999999.0,-0.45146352,-0.4683771,-0.10874279,-0.593644,-0.5870483,1.0216811,-1.1839631,0.06763509,-0.32704163
17:35:48.854;0.07386045,-0.089927085,8.069338,0.31342387,-0.2309438,0.3637365,-18.541569,-37.0799,9.12877,221.19803,0.0,0.0,2351.4658,0.0,1007.54,29.9,47.648125,9999999.0,47.648125,9999999.0,-0.46256426,-0.4705906,-0.10923039,-0.6384679,-0.52439386,1.0310838,-1.1908914,0.07305402,-0.39865112
17:35:48.889;0.0820727,-0.08726456,8.079697,0.19135356,-0.29197896,-0.0024744272,-18.531654,-37.07912,9.161416,221.20981,0.0,0.0,10190.218,0.0,1007.57996,29.9,47.312557,9999999.0,47.312557,9999999.0,-0.46699065,-0.47930473,-0.10277823,-0.61876565,-0.5819505,1.0377812,-1.2011106,0.0857848,-0.4104309
17:35:48.925;0.07331961,-0.085134536,8.065,0.25238872,-0.2309438,-0.12454474,-18.523724,-37.078495,9.187533,221.21924,0.0,0.0,0.0,0.0,1007.63995,29.9,46.810524,9999999.0,46.810524,9999999.0,-0.47290978,-0.48201606,-0.109207176,-0.60476965,-0.5208375,1.0468673,-1.2094246,0.08569572,-0.41986084
17:35:48.972;0.06631713,-0.08343052,8.068564,0.19135356,-0.29197896,-0.12454474,-18.53578,-37.041195,9.190026,221.18124,0.0,0.0,0.0,0.0,1007.75995,29.9,45.80646,9999999.0,45.80646,9999999.0,-0.47541013,-0.48876828,-0.12039688,-0.59240836,-0.47088963,1.0558609,-1.2231476,0.07984212,-0.38186646
17:35:49.007;0.060715154,-0.08206731,8.063755,0.37445903,-0.3530141,-0.0024744272,-18.527023,-36.974556,9.210422,221.15079,0.0,0.0,0.0,0.0,1007.6,29.9,47.14609,9999999.0,47.14609,9999999.0,-0.47781056,-0.48899016,-0.12928902,-0.58308005,-0.43137175,1.068967,-1.2355031,0.075483054,-0.3514099
17:35:49.057;0.05623357,-0.07331529,8.075231,0.43549418,-0.3530141,0.119595885,-18.52002,-36.921246,9.226737,221.12634,0.0,0.0,0.0,0.0,1007.63995,29.9,46.810524,9999999.0,46.810524,9999999.0,-0.46827438,-0.48418596,-0.13336378,-0.5201634,-0.39896834,1.0907416,-1.2531538,0.07535933,-0.32696533
17:35:49.076;0.044986855,-0.06631368,8.069088,0.37445903,-0.3530141,0.119595885,-18.551216,-36.915398,9.22139,221.08405,0.0,0.0,0.0,0.0,1007.6,29.9,47.14609,9999999.0,47.14609,9999999.0,-0.47731382,-0.48038313,-0.1342802,-0.47085238,-0.3194219,1.0974818,-1.259508,0.077512056,-0.28466797
17:35:49.109;0.04365093,-0.06837383,8.064174,0.19135356,-0.41404927,-0.06350958,-18.576174,-36.910717,9.217112,221.0502,0.0,0.0,0.0,0.0,1007.69995,29.9,46.30849,9999999.0,46.30849,9999999.0,-0.47411507,-0.4846314,-0.13262615,-0.48577583,-0.31012473,1.1039878,-1.2735857,0.081578314,-0.25082397
17:35:49.164;0.042582188,-0.06236051,8.0679035,0.37445903,-0.2309438,0.119595885,-18.59614,-36.906975,9.213689,221.02315,0.0,0.0,0.0,0.0,1007.6,29.9,47.14609,9999999.0,47.14609,9999999.0,-0.46361244,-0.47283593,-0.13787219,-0.44285026,-0.30239382,1.124583,-1.2862875,0.07808529,-0.22377014
17:35:49.244;0.041727196,-0.065211296,8.078549,0.61859965,-0.41404927,-0.24661505,-18.612112,-36.90398,9.192551,221.0015,0.0,0.0,0.0,0.0,1007.57996,29.9,47.312557,9999999.0,47.312557,9999999.0,-0.42473692,-0.4542165,-0.12989798,-0.46248415,-0.29593098,1.1734524,-1.3189974,0.08753336,-0.20211792
17:35:49.306;0.041043203,-0.059830483,8.079405,0.19135356,-0.3530141,-0.0024744272,-18.60649,-36.883183,9.19404,220.99548,0.0,0.0,0.0,0.0,1007.54,29.9,47.648125,9999999.0,47.648125,9999999.0,-0.4418036,-0.46058366,-0.14644817,-0.4242797,-0.29105085,1.1855077,-1.3412373,0.071996614,-0.19610596
17:35:49.350;0.048157454,-0.06318728,8.080089,0.25238872,-0.3530141,-0.12454474,-18.601992,-36.884945,9.195232,221.00215,0.0,0.0,0.0,0.0,1007.54,29.9,47.648125,9999999.0,47.648125,9999999.0,-0.44944984,-0.4625122,-0.14768137,-0.4480429,-0.34146926,1.1966127,-1.3567699,0.07188774,-0.20277405
17:35:49.391;0.053848855,-0.065872714,8.080636,0.1303184,-0.41404927,0.119595885,-18.598394,-36.886356,9.196186,221.00748,0.0,0.0,0.0,0.0,1007.66,29.9,46.644062,9999999.0,46.644062,9999999.0,-0.4574945,-0.4722113,-0.15377188,-0.46705002,-0.38179716,1.2018255,-1.3733319,0.06690595,-0.20809937
17:35:49.433;0.043079086,-0.06802106,8.081074,0.31342387,-0.3530141,0.119595885,-18.613916,-36.850685,9.178549,220.96597,0.0,0.0,0.0,0.0,1007.66,29.9,46.644062,9999999.0,46.644062,9999999.0,-0.45920455,-0.4710049,-0.14898856,-0.4822592,-0.30542216,1.2153027,-1.3885115,0.072048575,-0.16659546
17:35:49.470;0.034463268,-0.062078293,8.073763,0.25238872,-0.16990864,0.05856073,-18.626333,-36.84055,9.20124,220.94424,0.0,0.0,0.0,0.0,1007.6,29.9,47.14609,9999999.0,47.14609,9999999.0,-0.46124375,-0.463071,-0.14456958,-0.4405284,-0.24456124,1.2246411,-1.3947982,0.07647362,-0.14486694
17:35:49.518;0.03523206,-0.06498553,8.067914,0.25238872,-0.29197896,-0.06350958,-18.636267,-36.83244,9.219392,220.92685,0.0,0.0,0.0,0.0,1007.66,29.9,46.644062,9999999.0,46.644062,9999999.0,-0.45116708,-0.46088237,-0.14147294,-0.46149233,-0.25019726,1.2367557,-1.4088131,0.07928454,-0.12747192
17:35:49.550;0.035847094,-0.05964987,8.070896,0.43549418,-0.5361196,-0.06350958,-18.644213,-36.82595,9.233913,220.91295,0.0,0.0,0.0,0.0,1007.6,29.9,47.14609,9999999.0,47.14609,9999999.0,-0.44647658,-0.4594492,-0.14290658,-0.42344615,-0.25447208,1.2506915,-1.425969,0.07725223,-0.11357117
17:35:49.602;0.03633912,-0.055381343,8.080943,0.49652934,-0.41404927,0.119595885,-18.65057,-36.82076,9.208731,220.90182,0.0,0.0,0.0,0.0,1007.63995,29.9,46.810524,9999999.0,46.810524,9999999.0,-0.4328102,-0.45040685,-0.14533386,-0.39265656,-0.25764507,1.2765111,-1.4474995,0.07394973,-0.10244751
17:35:49.631;0.03673274,-0.05196652,8.088981,0.31342387,-0.47508442,-0.06350958,-18.655657,-36.81661,9.188584,220.89291,0.0,0.0,0.0,0.0,1007.72,29.9,46.14203,9999999.0,46.14203,9999999.0,-0.4398528,-0.44976118,-0.14089899,-0.3680798,-0.2601778,1.2856004,-1.461277,0.077418014,-0.09353638
17:35:49.682;0.03704764,-0.056896105,8.0877495,0.37445903,-0.29197896,-0.0024744272,-18.659725,-36.794888,9.190867,220.87424,0.0,0.0,0.0,0.0,1007.66,29.9,46.644062,9999999.0,46.644062,9999999.0,-0.43011162,-0.44135144,-0.14275241,-0.40305635,-0.26244706,1.3046979,-1.4761679,0.07417902,-0.07485962
17:35:49.706;0.03729956,-0.05317833,8.079103,0.06928325,-0.2309438,-0.06350958,-18.662981,-36.77751,9.192694,220.85928,0.0,0.0,0.0,0.0,1007.66,29.9,46.644062,9999999.0,46.644062,9999999.0,-0.43850526,-0.44023094,-0.14115125,-0.3771232,-0.26451522,1.3062913,-1.4814796,0.07412211,-0.059906006
17:35:49.743;0.037501093,-0.057865553,8.072186,0.43549418,-0.41404927,-0.1855799,-18.665585,-36.78201,9.194155,220.85889,0.0,0.0,0.0,0.0,1007.66,29.9,46.644062,9999999.0,46.644062,9999999.0,-0.42342278,-0.43569693,-0.1418835,-0.4107139,-0.26617122,1.3228401,-1.4972135,0.071708746,-0.059509277
17:35:49.780;0.03766232,-0.061615333,8.066652,0.19135356,-0.16990864,0.05856073,-18.667667,-36.785606,9.195324,220.85858,0.0,0.0,0.0,0.0,1007.69995,29.9,46.30849,9999999.0,46.30849,9999999.0,-0.42879707,-0.431732,-0.14695904,-0.43762782,-0.267498,1.3299202,-1.5035001,0.06484229,-0.0592041
17:35:49.813;0.0377913,-0.056953713,8.0545635,0.06928325,-0.29197896,0.18063104,-18.650934,-36.788486,9.21466,220.8811,0.0,0.0,0.0,0.0,1007.6,29.9,47.14609,9999999.0,47.14609,9999999.0,-0.42895928,-0.43519905,-0.14376053,-0.40512648,-0.26881805,1.3322065,-1.5131354,0.06677479,-0.081726074
17:35:49.849;0.037894487,-0.06088586,8.067877,0.1303184,-0.3530141,-0.0024744272,-18.637548,-36.79079,9.230128,220.89914,0.0,0.0,0.0,0.0,1007.66,29.9,46.644062,9999999.0,46.644062,9999999.0,-0.43067276,-0.43954983,-0.13668491,-0.43238118,-0.2691063,1.3367677,-1.5254909,0.07309688,-0.09976196
17:35:49.885;0.037977036,-0.056370135,8.078527,0.31342387,-0.41404927,0.05856073,-18.66364,-36.792633,9.242503,220.86798,0.0,0.0,0.0,0.0,1007.66,29.9,46.644062,9999999.0,46.644062,9999999.0,-0.42738983,-0.43924224,-0.135413,-0.39978608,-0.26933807,1.3483644,-1.5408107,0.073005326,-0.068603516
17:35:49.943;0.038043074,-0.060419,8.071726,0.37445903,-0.41404927,-0.0024744272,-18.702911,-36.794106,9.234002,220.82028,0.0,0.0,0.0,0.0,1007.66,29.9,46.644062,9999999.0,46.644062,9999999.0,-0.4177504,-0.43833062,-0.12979425,-0.4288613,-0.27003276,1.370083,-1.5648255,0.076401845,-0.020904541
17:35:49.989;0.04575735,-0.06365809,8.066284,0.19135356,-0.3530141,-0.12454474,-18.73433,-36.795284,9.227201,220.78217,0.0,0.0,0.0,0.0,1007.66,29.9,46.644062,9999999.0,46.644062,9999999.0,-0.4301684,-0.44363308,-0.12696327,-0.45215434,-0.3250063,1.3786939,-1.5807111,0.076290496,0.017211914
17:35:50.038;0.044267327,-0.06624936,8.069592,0.37445903,-0.29197896,0.119595885,-18.722664,-36.796227,9.221761,220.79718,0.0,0.0,0.0,0.0,1007.66,29.9,46.644062,9999999.0,46.644062,9999999.0,-0.42581925,-0.43789572,-0.13048276,-0.47036657,-0.31429344,1.3974168,-1.5953101,0.070063256,0.0021972656
17:35:50.283;0.03541386,-0.060660936,8.056916,0.43549418,-0.47508442,0.05856073,-18.713331,-36.77858,9.235808,220.7976,0.0,0.0,0.0,0.0,1007.69995,29.9,46.30849,9999999.0,46.30849,9999999.0,-0.33320308,-0.44564345,-0.09912274,-0.43137056,-0.2518326,1.504113,-1.7117058,0.09936425,0.0017700195
17:35:50.309;0.035992533,-0.06385164,8.054437,0.31342387,-0.3530141,0.05856073,-18.705866,-36.764465,9.247046,220.79797,0.0,0.0,0.0,0.0,1007.63995,29.9,46.810524,9999999.0,46.810524,9999999.0,-0.4378285,-0.44318727,-0.09562009,-0.4541989,-0.25602555,1.512262,-1.7208842,0.10088683,0.0014038086
17:35:50.337;0.03645547,-0.058742758,8.052453,0.19135356,-0.47508442,-0.12454474,-18.699892,-36.753174,9.256038,220.79825,0.0,0.0,0.0,0.0,1007.75995,29.9,45.80646,9999999.0,45.80646,9999999.0,-0.43743202,-0.44690737,-0.0920782,-0.4179618,-0.25938368,1.5176198,-1.7341865,0.10252653,0.0011291504
17:35:50.363;0.03682582,-0.06997854,8.050866,0.25238872,-0.5361196,-0.06350958,-18.695114,-36.74414,9.26323,220.79848,0.0,0.0,0.0,0.0,1007.66,29.9,46.644062,9999999.0,46.644062,9999999.0,-0.44149837,-0.45157006,-0.09339203,-0.49800012,-0.2620674,1.524182,-1.7481257,0.09928837,9.0026855E-4
17:35:50.392;0.044783548,-0.06364428,8.057258,0.43549418,-0.2309438,-0.0024744272,-18.691292,-36.773712,9.268985,220.82184,0.0,0.0,0.0,0.0,1007.69995,29.9,46.30849,9999999.0,46.30849,9999999.0,-0.4392132,-0.44336125,-0.09377835,-0.452563,-0.31844604,1.5368114,-1.7548231,0.09744659,-0.022460938
17:35:50.423;0.043488283,-0.066238314,8.047049,0.37445903,-0.5361196,0.05856073,-18.688234,-36.79737,9.273588,220.8405,0.0,0.0,0.0,0.0,1007.69995,29.9,46.30849,9999999.0,46.30849,9999999.0,-0.43255007,-0.44637895,-0.0928004,-0.47160578,-0.30962735,1.5484196,-1.7714428,0.09736989,-0.041122437
17:35:50.460;0.034790628,-0.052990653,8.046542,0.49652934,-0.41404927,-0.06350958,-18.685787,-36.779495,9.240471,220.83229,0.0,0.0,0.0,0.0,1007.75995,29.9,45.80646,9999999.0,45.80646,9999999.0,-0.4274801,-0.4384926,-0.08953664,-0.37731344,-0.24772137,1.5662947,-1.7863486,0.09947807,-0.032913208
17:35:50.486;0.035493948,-0.057715412,8.046137,0.37445903,-0.2309438,-0.0024744272,-18.68383,-36.765198,9.213977,220.82571,0.0,0.0,0.0,0.0,1007.63995,29.9,46.810524,9999999.0,46.810524,9999999.0,-0.42803404,-0.43063894,-0.0899531,-0.41097495,-0.2527409,1.576405,-1.7925841,0.097763315,-0.02633667
17:35:50.513;0.036056604,-0.061495222,8.045813,0.5575645,-0.47508442,-0.06350958,-18.682264,-36.753757,9.192781,220.82045,0.0,0.0,0.0,0.0,1007.6,29.9,47.14609,9999999.0,47.14609,9999999.0,-0.41603112,-0.42541635,-0.088640966,-0.43790638,-0.2567568,1.5914593,-1.8054113,0.097696505,-0.021072388
17:35:50.539;0.036506727,-0.056857623,8.053215,0.19135356,-0.41404927,-0.0024744272,-18.699411,-36.744606,9.175825,220.79346,0.0,0.0,0.0,0.0,1007.6,29.9,47.14609,9999999.0,47.14609,9999999.0,-0.42012256,-0.42746457,-0.08836797,-0.40451103,-0.2597242,1.5964345,-1.8161767,0.096045256,0.00592041
17:35:50.567;0.03686683,-0.053147543,8.07446,0.31342387,-0.29197896,0.05856073,-18.713129,-36.737286,9.16226,220.77185,0.0,0.0,0.0,0.0,1007.6,29.9,47.14609,9999999.0,47.14609,9999999.0,-0.41816452,-0.42275894,-0.08611555,-0.37712172,-0.26159686,1.6048969,-1.8240601,0.09597845,0.027526855
17:35:50.595;0.044816352,-0.057840925,8.06081,0.49652934,-0.5361196,0.119595885,-18.705704,-36.74983,9.169808,220.78894,0.0,0.0,0.0,0.0,1007.57996,29.9,47.312557,9999999.0,47.312557,9999999.0,-0.40890133,-0.42180523,-0.082577586,-0.4111166,-0.3185406,1.6187997,-1.8390714,0.09761815,0.010437012
17:35:50.623;0.043514527,-0.06159563,8.057551,0.19135356,-0.29197896,-0.06350958,-18.699762,-36.75986,9.175847,220.80263,0.0,0.0,0.0,0.0,1007.63995,29.9,46.810524,9999999.0,46.810524,9999999.0,-0.41669047,-0.42284295,-0.07759212,-0.43798038,-0.30941182,1.624349,-1.8475388,0.10108643,-0.003250122
17:35:50.652;0.050134514,-0.056937948,8.054945,0.37445903,-0.16990864,-0.06350958,-18.71341,-36.767887,9.180677,220.79079,0.0,0.0,0.0,0.0,1007.69995,29.9,46.30849,9999999.0,46.30849,9999999.0,-0.41221076,-0.41576082,-0.07761117,-0.40499178,-0.35659924,1.6348338,-1.8522962,0.09930816,0.008590698
17:35:50.681;0.047769055,-0.053211804,8.060521,0.31342387,-0.41404927,-0.12454474,-18.724327,-36.77431,9.184542,220.78131,0.0,0.0,0.0,0.0,1007.69995,29.9,46.30849,9999999.0,46.30849,9999999.0,-0.40579548,-0.41664347,-0.0775648,-0.3782279,-0.3395405,1.6442366,-1.8647177,0.09740288,0.018066406
17:35:50.711;0.053538136,-0.057892334,8.072643,0.19135356,-0.29197896,-0.1855799,-18.733063,-36.77945,9.1876335,220.77374,0.0,0.0,0.0,0.0,1007.6,29.9,47.14609,9999999.0,47.14609,9999999.0,-0.41090232,-0.41886792,-0.07916242,-0.41087615,-0.37997288,1.6499772,-1.8734771,0.09366654,0.025634766
17:35:50.739;0.0581534,-0.053975314,8.074679,0.31342387,-0.5361196,0.05856073,-18.721651,-36.783558,9.190106,220.79047,0.0,0.0,0.0,0.0,1007.66,29.9,46.644062,9999999.0,46.644062,9999999.0,-0.4095498,-0.42432243,-0.08249326,-0.38297886,-0.41262472,1.658753,-1.8884884,0.0884703,0.008911133
17:35:50.767;0.054184165,-0.058503143,8.076308,0.49652934,-0.3530141,-0.0024744272,-18.71252,-36.786846,9.192085,220.80383,0.0,0.0,0.0,0.0,1007.66,29.9,46.644062,9999999.0,46.644062,9999999.0,-0.41051167,-0.4196758,-0.0793256,-0.41502243,-0.38438305,1.6726558,-1.8983728,0.090110004,-0.0044555664
17:35:50.797;0.051008776,-0.062125407,8.062288,0.31342387,-0.5361196,-0.0024744272,-18.705217,-36.771076,9.193668,220.80293,0.0,0.0,0.0,0.0,1007.66,29.9,46.644062,9999999.0,46.644062,9999999.0,-0.4108973,-0.425691,-0.077882946,-0.44148532,-0.3624854,1.6820586,-1.9144564,0.090035774,-0.0035552979
17:35:50.826;0.048468467,-0.06502321,8.058734,0.25238872,-0.29197896,-0.12454474,-18.699373,-36.75846,9.194935,220.80222,0.0,0.0,0.0,0.0,1007.63995,29.9,46.810524,9999999.0,46.810524,9999999.0,-0.41924995,-0.4260547,-0.076452374,-0.46228197,-0.3445845,1.6893779,-1.9229238,0.08996402,-0.0028381348
17:35:50.867;0.04643622,-0.059680015,8.055891,0.37445903,-0.47508442,0.18063104,-18.694698,-36.76677,9.195948,220.81325,0.0,0.0,0.0,0.0,1007.6,29.9,47.14609,9999999.0,47.14609,9999999.0,-0.41134375,-0.4283453,-0.080082886,-0.42444634,-0.33025482,1.7043563,-1.9419272,0.08498223,-0.013870239
17:35:50.896;0.05247187,-0.0630669,8.061277,0.19135356,-0.47508442,-0.12454474,-18.690958,-36.773415,9.196758,220.82205,0.0,0.0,0.0,0.0,1007.57996,29.9,47.312557,9999999.0,47.312557,9999999.0,-0.42311722,-0.43608093,-0.073624164,-0.4482313,-0.37292877,1.710097,-1.9561797,0.090401165,-0.02267456
17:35:50.924;0.049638942,-0.058114965,8.057925,0.25238872,-0.59715474,0.30270135,-18.669567,-36.778732,9.197407,220.8519,0.0,0.0,0.0,0.0,1007.63995,29.9,46.810524,9999999.0,46.810524,9999999.0,-0.428698,-0.44356883,-0.0766196,-0.41321075,-0.35294345,1.7171638,-1.9729,0.08691391,-0.052520752
17:35:50.951;0.039711155,-0.054153416,8.078228,0.25238872,-0.5361196,-0.06350958,-18.652454,-36.782986,9.197926,220.87576,0.0,0.0,0.0,0.0,1007.63995,29.9,46.810524,9999999.0,46.810524,9999999.0,-0.4357008,-0.44680545,-0.068605445,-0.38407907,-0.2816474,1.7239783,-1.9873753,0.09508685,-0.0763855
17:35:50.988;0.03943037,-0.050984178,8.063825,0.37445903,-0.41404927,0.119595885,-18.638763,-36.78639,9.17994,220.89487,0.0,0.0,0.0,0.0,1007.63995,29.9,46.810524,9999999.0,46.810524,9999999.0,-0.4319034,-0.4434761,-0.07138374,-0.362248,-0.2801562,1.7374588,-2.002281,0.092800505,-0.0954895
17:35:51.024;0.03920574,-0.048448786,8.052301,0.31342387,-0.04783833,-0.0024744272,-18.627811,-36.789112,9.165552,220.91016,0.0,0.0,0.0,0.0,1007.6,29.9,47.14609,9999999.0,47.14609,9999999.0,-0.43013638,-0.42884746,-0.067835085,-0.34472686,-0.2789594,1.7490555,-2.004051,0.097225554,-0.11077881
17:35:51.055;0.039026037,-0.046420474,8.050745,0.25238872,-0.41404927,0.119595885,-18.63745,-36.79129,9.154041,220.89958,0.0,0.0,0.0,0.0,1007.75995,29.9,45.80646,9999999.0,45.80646,9999999.0,-0.4192101,-0.42895943,-0.06855764,-0.33035904,-0.27773485,1.7568796,-2.0168865,0.09714885,-0.10020447
17:35:51.085;0.038882274,-0.05245927,8.041838,0.31342387,-0.3530141,0.05856073,-18.645159,-36.793034,9.144833,220.89111,0.0,0.0,0.0,0.0,1007.66,29.9,46.644062,9999999.0,46.644062,9999999.0,-0.41864052,-0.42618668,-0.06550508,-0.37374753,-0.27701697,1.7662823,-2.0274768,0.10073673,-0.09173584
17:35:51.112;0.038767263,-0.05729031,8.050035,0.37445903,-0.3530141,0.05856073,-18.651327,-36.776028,9.155866,220.8728,0.0,0.0,0.0,0.0,1007.69995,29.9,46.30849,9999999.0,46.30849,9999999.0,-0.41590974,-0.4224506,-0.06411397,-0.40774968,-0.2759152,1.7763927,-2.0370083,0.10231787,-0.07342529
17:35:51.141;0.031013811,-0.053493693,8.064255,0.49652934,-0.16990864,0.05856073,-18.656261,-36.76242,9.164693,220.85812,0.0,0.0,0.0,0.0,1007.77997,29.9,45.639996,9999999.0,45.639996,9999999.0,-0.40749142,-0.40857726,-0.06234232,-0.38005933,-0.2203443,1.7907921,-2.0419357,0.10401613,-0.058746338
17:35:51.171;0.04013394,-0.058117844,8.067968,0.37445903,-0.41404927,-0.1855799,-18.66021,-36.751537,9.171754,220.84637,0.0,0.0,0.0,0.0,1007.69995,29.9,46.30849,9999999.0,46.30849,9999999.0,-0.39765102,-0.4075712,-0.060313728,-0.41271958,-0.2850069,1.8020259,-2.054357,0.10577296,-0.04699707
17:35:51.197;0.039768595,-0.054155722,8.07094,0.61859965,-0.41404927,0.05856073,-18.663368,-36.76123,9.195804,220.84857,0.0,0.0,0.0,0.0,1007.63995,29.9,46.810524,9999999.0,46.810524,9999999.0,-0.3913467,-0.3997159,-0.06481992,-0.3844422,-0.28230947,1.8181095,-2.0651224,0.10094788,-0.049194336
17:35:51.229;0.03947632,-0.05864747,8.065656,0.37445903,-0.16990864,-0.0024744272,-18.665895,-36.768986,9.215043,220.85031,0.0,0.0,0.0,0.0,1007.69995,29.9,46.30849,9999999.0,46.30849,9999999.0,-0.3886775,-0.39167413,-0.06276312,-0.4166001,-0.2804172,1.8297178,-2.0703895,0.102763265,-0.050933838
17:35:51.257;0.039242502,-0.054579422,8.06909,0.43549418,-0.5361196,0.119595885,-18.667917,-36.77519,9.212034,220.85172,0.0,0.0,0.0,0.0,1007.69995,29.9,46.30849,9999999.0,46.30849,9999999.0,-0.3792147,-0.3924397,-0.06262493,-0.38753885,-0.2786387,1.8423471,-2.085937,0.10269151,-0.052337646
17:35:51.287;0.039055448,-0.051324982,8.064176,0.1303184,-0.3530141,-0.06350958,-18.669535,-36.78015,9.209627,220.85283,0.0,0.0,0.0,0.0,1007.72,29.9,46.14203,9999999.0,46.14203,9999999.0,-0.3880526,-0.3962198,-0.058925346,-0.3646536,-0.27748024,1.8462567,-2.0965273,0.10627939,-0.053451538
17:35:51.317;0.054228697,-0.048721433,8.067905,0.25238872,-0.41404927,0.119595885,-18.670828,-36.80252,9.207702,220.8653,0.0,0.0,0.0,0.0,1007.63995,29.9,46.810524,9999999.0,46.810524,9999999.0,-0.387795,-0.39991423,-0.06093238,-0.3459926,-0.3851027,1.8538284,-2.1089487,0.1043741,-0.06591797
17:35:51.341;0.051044405,-0.046638593,8.063228,0.31342387,-0.47508442,-0.12454474,-18.671862,-36.820415,9.2061615,220.87524,0.0,0.0,0.0,0.0,1007.66,29.9,46.644062,9999999.0,46.644062,9999999.0,-0.3911721,-0.40177664,-0.05841817,-0.33139473,-0.36270103,1.8613507,-2.1203508,0.1072444,-0.0758667
17:35:51.372;0.04849697,-0.052633766,8.051825,0.37445903,-0.29197896,0.2416662,-18.67269,-36.834732,9.204929,220.88321,0.0,0.0,0.0,0.0,1007.69995,29.9,46.30849,9999999.0,46.30849,9999999.0,-0.3898555,-0.39783046,-0.062710114,-0.3745232,-0.34508684,1.8729589,-2.1294022,0.10338352,-0.08383179
17:35:51.403;0.038797576,-0.057429902,8.058024,0.43549418,-0.41404927,-0.12454474,-18.691751,-36.827785,9.203943,220.85526,0.0,0.0,0.0,0.0,1007.66,29.9,46.644062,9999999.0,46.644062,9999999.0,-0.3848103,-0.39521006,-0.055231646,-0.40833795,-0.27585715,1.8864592,-2.1422377,0.110875174,-0.055877686
17:35:51.432;0.038699508,-0.053605366,8.070646,0.19135356,-0.3530141,-0.12454474,-18.707,-36.822227,9.203155,220.8329,0.0,0.0,0.0,0.0,1007.69995,29.9,46.30849,9999999.0,46.30849,9999999.0,-0.38947856,-0.39721623,-0.058337044,-0.38054955,-0.27473047,1.8920085,-2.152475,0.10726338,-0.03352356
17:35:51.469;0.030959606,-0.050545737,8.057759,0.37445903,-0.2309438,-0.06350958,-18.682402,-36.817783,9.202523,220.86053,0.0,0.0,0.0,0.0,1007.69995,29.9,46.30849,9999999.0,46.30849,9999999.0,-0.38288212,-0.38800123,-0.06290945,-0.3594049,-0.22013703,1.9058635,-2.16102,0.102655225,-0.061157227
17:35:51.504;0.040090576,-0.055759482,8.047449,0.37445903,-0.10887349,0.119595885,-18.662722,-36.814228,9.202019,220.88268,0.0,0.0,0.0,0.0,1007.57996,29.9,47.312557,9999999.0,47.312557,9999999.0,-0.3753369,-0.37727305,-0.06549559,-0.39698198,-0.28542542,1.9189696,-2.1648307,0.10043239,-0.08329773
17:35:51.542;0.039733905,-0.059930477,8.046863,0.37445903,-0.41404927,0.119595885,-18.665377,-36.811382,9.201615,220.8776,0.0,0.0,0.0,0.0,1007.72,29.9,46.14203,9999999.0,46.14203,9999999.0,-0.36468384,-0.3780617,-0.06141346,-0.42670768,-0.28290573,1.9328246,-2.1801505,0.10485744,-0.07821655
17:35:51.570;0.03944857,-0.063267276,8.046393,0.49652934,-0.3530141,0.05856073,-18.667501,-36.809105,9.201292,220.87354,0.0,0.0,0.0,0.0,1007.66,29.9,46.644062,9999999.0,46.644062,9999999.0,-0.36588553,-0.3738723,-0.05838663,-0.45049122,-0.28088966,1.9467274,-2.1900349,0.10820612,-0.074157715
17:35:51.600;0.039220303,-0.058275267,8.046019,0.25238872,-0.47508442,0.119595885,-18.6692,-36.788883,9.219434,220.85873,0.0,0.0,0.0,0.0,1007.66,29.9,46.644062,9999999.0,46.644062,9999999.0,-0.36727396,-0.37948155,-0.05662696,-0.41496658,-0.27927864,1.9542991,-2.2042873,0.11002151,-0.05935669
17:35:51.629;0.046699133,-0.061943106,8.045718,0.43549418,-0.29197896,0.119595885,-18.67056,-36.772705,9.233947,220.84688,0.0,0.0,0.0,0.0,1007.56,29.9,47.47902,9999999.0,47.47902,9999999.0,-0.36833712,-0.37591928,-0.053162724,-0.4410978,-0.33254382,1.9669285,-2.2127547,0.113370195,-0.04750061
17:35:51.658;0.04502075,-0.064877376,8.045478,0.31342387,-0.3530141,0.05856073,-18.671648,-36.796562,9.245558,220.86053,0.0,0.0,0.0,0.0,1007.72,29.9,46.14203,9999999.0,46.14203,9999999.0,-0.36842635,-0.37784845,-0.049806494,-0.46200624,-0.32060102,1.9763312,-2.223345,0.116958074,-0.061157227
17:35:51.687;0.043678045,-0.07488624,8.045286,0.31342387,-0.47508442,-0.0024744272,-18.672518,-36.81565,9.254847,220.87143,0.0,0.0,0.0,0.0,1007.66,29.9,46.644062,9999999.0,46.644062,9999999.0,-0.37204978,-0.38433155,-0.04858711,-0.533291,-0.3110436,1.9854206,-2.2371225,0.11865634,-0.072052
17:35:51.716;0.034942437,-0.06757044,8.045133,0.31342387,-0.3530141,-0.0024744272,-18.636414,-36.83092,9.262278,220.92572,0.0,0.0,0.0,0.0,1007.72,29.9,46.14203,9999999.0,46.14203,9999999.0,-0.37736154,-0.3848238,-0.050212543,-0.48120692,-0.24884251,1.9945099,-2.24736,0.11858458,-0.12634277
17:35:51.745;0.035615396,-0.06937924,8.04501,0.43549418,-0.3530141,0.18063104,-18.60753,-36.843136,9.268222,220.96915,0.0,0.0,0.0,0.0,1007.72,29.9,46.14203,9999999.0,46.14203,9999999.0,-0.37463248,-0.38224524,-0.052673995,-0.49409515,-0.2536383,2.0071392,-2.2575974,0.118512824,-0.16976929
17:35:51.775;0.036153764,-0.070826285,8.044911,0.19135356,-0.47508442,0.18063104,-18.621225,-36.81611,9.272978,220.93526,0.0,0.0,0.0,0.0,1007.54,29.9,47.648125,9999999.0,47.648125,9999999.0,-0.37906265,-0.3905984,-0.049027555,-0.504406,-0.25747505,2.0128798,-2.2718499,0.12393176,-0.13587952
17:35:51.804;0.036584456,-0.06432247,8.052494,0.1303184,-0.59715474,0.18063104,-18.632181,-36.794487,9.276782,220.90811,0.0,0.0,0.0,0.0,1007.72,29.9,46.14203,9999999.0,46.14203,9999999.0,-0.38823593,-0.4026483,-0.045088146,-0.45765817,-0.2602987,2.016659,-2.2891674,0.12917006,-0.10873413
17:35:51.833;0.044590455,-0.059119422,8.05856,0.31342387,-0.16990864,0.119595885,-18.640945,-36.77719,9.279826,220.88638,0.0,0.0,0.0,0.0,1007.6,29.9,47.14609,9999999.0,47.14609,9999999.0,-0.39409423,-0.39738157,-0.04079296,-0.42032084,-0.31702313,2.0257483,-2.2940948,0.13440835,-0.087005615
17:35:51.861;0.04333381,-0.054956984,8.063414,0.37445903,-0.2309438,0.119595885,-18.647957,-36.781754,9.2454605,220.88057,0.0,0.0,0.0,0.0,1007.75995,29.9,45.80646,9999999.0,45.80646,9999999.0,-0.38696864,-0.39172444,-0.03831923,-0.3904933,-0.3079047,2.0362332,-2.3005612,0.13775703,-0.08119202
17:35:51.891;0.04232849,-0.05928848,8.059634,0.19135356,-0.41404927,0.05856073,-18.653566,-36.785404,9.217968,220.87592,0.0,0.0,0.0,0.0,1007.66,29.9,46.644062,9999999.0,46.644062,9999999.0,-0.3866935,-0.39715073,-0.03556749,-0.4214672,-0.3009015,2.0419738,-2.3129826,0.1413449,-0.076538086
17:35:51.921;0.04152424,-0.06275368,8.064272,0.31342387,-0.47508442,0.18063104,-18.658052,-36.788322,9.232775,220.8722,0.0,0.0,0.0,0.0,1007.63995,29.9,46.810524,9999999.0,46.810524,9999999.0,-0.38921708,-0.4008349,-0.034648143,-0.4458432,-0.2950137,2.051063,-2.32676,0.14304316,-0.07281494
17:35:51.952;0.03321939,-0.06552583,8.05266,0.43549418,-0.41404927,0.119595885,-18.661642,-36.790657,9.24462,220.8692,0.0,0.0,0.0,0.0,1007.6,29.9,47.14609,9999999.0,47.14609,9999999.0,-0.38848534,-0.39842728,-0.029687073,-0.466211,-0.23635134,2.0649989,-2.3400097,0.14882335,-0.06982422
17:35:51.982;0.034236956,-0.060082108,8.058693,0.31342387,-0.3530141,-0.06350958,-18.646114,-36.774124,9.235696,220.87805,0.0,0.0,0.0,0.0,1007.69995,29.9,46.30849,9999999.0,46.30849,9999999.0,-0.38978726,-0.39723834,-0.027150698,-0.42716062,-0.24341004,2.0744016,-2.3506,0.15241122,-0.07867432
17:35:52.011;0.03505101,-0.06338858,8.055858,0.49652934,-0.29197896,-0.06350958,-18.633692,-36.7609,9.228557,220.88515,0.0,0.0,0.0,0.0,1007.69995,29.9,46.30849,9999999.0,46.30849,9999999.0,-0.38419873,-0.38979846,-0.030128019,-0.45082584,-0.24928446,2.088801,-2.3590674,0.15056944,-0.08576965
17:35:52.040;0.035702255,-0.06603375,8.05359,0.31342387,-0.3530141,0.119595885,-18.623755,-36.76872,9.222845,220.90237,0.0,0.0,0.0,0.0,1007.72,29.9,46.14203,9999999.0,46.14203,9999999.0,-0.3824904,-0.389953,-0.033390336,-0.4697698,-0.2539869,2.0978901,-2.369305,0.14872766,-0.102996826
17:35:52.070;0.036223248,-0.060488448,8.059437,0.1303184,-0.41404927,-0.12454474,-18.615805,-36.774975,9.218276,220.91617,0.0,0.0,0.0,0.0,1007.69995,29.9,46.30849,9999999.0,46.30849,9999999.0,-0.38692275,-0.3965075,-0.031542227,-0.43000928,-0.25750768,2.1017997,-2.3817263,0.15231553,-0.11679077
17:35:52.098;0.036640044,-0.06371365,8.064115,0.25238872,-0.2309438,-0.1855799,-18.609444,-36.77998,9.214621,220.9272,0.0,0.0,0.0,0.0,1007.54,29.9,47.648125,9999999.0,47.648125,9999999.0,-0.3907053,-0.39443466,-0.036885343,-0.45267332,-0.26031873,2.1088667,-2.3881927,0.14882827,-0.12782288
17:35:52.129;0.03697348,-0.07395525,8.060195,0.37445903,-0.29197896,0.05856073,-18.622755,-36.783985,9.193296,220.91321,0.0,0.0,0.0,0.0,1007.69995,29.9,46.30849,9999999.0,46.30849,9999999.0,-0.3856837,-0.39209658,-0.044062164,-0.52568954,-0.26281255,2.1204748,-2.397244,0.14307529,-0.11383057
17:35:52.165;0.03724023,-0.07448709,8.057059,0.43549418,-0.2309438,-0.0024744272,-18.633404,-36.78719,9.176237,220.90201,0.0,0.0,0.0,0.0,1007.66,29.9,46.644062,9999999.0,46.644062,9999999.0,-0.37948394,-0.3853382,-0.04316751,-0.5296757,-0.26481146,2.1361525,-2.4055579,0.14518347,-0.102630615
17:35:52.191;0.03745363,-0.067251116,8.069874,0.37445903,-0.29197896,-0.06350958,-18.641924,-36.789753,9.16259,220.89307,0.0,0.0,0.0,0.0,1007.66,29.9,46.644062,9999999.0,46.644062,9999999.0,-0.37763947,-0.38284448,-0.044240985,-0.47746402,-0.26590812,2.1458883,-2.4131494,0.14511915,-0.093688965
17:35:52.215;0.037624348,-0.06146234,8.072464,0.37445903,-0.41404927,0.05856073,-18.648739,-36.7918,9.151672,220.88591,0.0,0.0,0.0,0.0,1007.77997,29.9,45.639996,9999999.0,45.639996,9999999.0,-0.37547183,-0.3826358,-0.046518322,-0.43622693,-0.26703596,2.154501,-2.4226725,0.14365843,-0.08653259
17:35:52.240;0.037760925,-0.06449276,8.0668745,0.19135356,-0.3530141,-0.12454474,-18.672592,-36.77504,9.161338,220.84583,0.0,0.0,0.0,0.0,1007.6,29.9,47.14609,9999999.0,47.14609,9999999.0,-0.37945595,-0.3858795,-0.045082174,-0.4580515,-0.2681902,2.1592848,-2.4314978,0.14512245,-0.046447754
17:35:52.266;0.037870184,-0.0669171,8.070065,0.25238872,-0.47508442,0.05856073,-18.691673,-36.76163,9.16907,220.81375,0.0,0.0,0.0,0.0,1007.69995,29.9,46.30849,9999999.0,46.30849,9999999.0,-0.3809853,-0.3913135,-0.047763463,-0.47508135,-0.2688592,2.1660993,-2.4443252,0.14175974,-0.014373779
17:35:52.302;0.037957594,-0.061195124,8.064955,0.37445903,-0.10887349,0.119595885,-18.68854,-36.750904,9.175256,220.81088,0.0,0.0,0.0,0.0,1007.6,29.9,47.14609,9999999.0,47.14609,9999999.0,-0.378971,-0.3806257,-0.044972274,-0.43473476,-0.269652,2.1795797,-2.4482446,0.14386792,-0.011505127
17:35:52.332;0.03802752,-0.0489561,8.07619,0.43549418,-0.29197896,-0.0024744272,-18.686031,-36.742325,9.180204,220.8086,0.0,0.0,0.0,0.0,1007.63995,29.9,46.810524,9999999.0,46.810524,9999999.0,-0.36715576,-0.37379235,-0.040741038,-0.3473064,-0.26977578,2.1926446,-2.4570038,0.1474558,-0.009216309
17:35:52.373;0.038083464,-0.046826325,8.077517,0.25238872,-0.2309438,0.05856073,-18.684025,-36.73546,9.184163,220.80673,0.0,0.0,0.0,0.0,1007.66,29.9,46.644062,9999999.0,46.644062,9999999.0,-0.36306572,-0.37026,-0.04017031,-0.33214304,-0.2701287,2.2027402,-2.4662416,0.14735682,-0.0073547363
17:35:52.425;0.038128216,-0.05278395,8.070917,0.37445903,-0.41404927,-0.1855799,-18.66402,-36.748367,9.18733,220.83966,0.0,0.0,0.0,0.0,1007.69995,29.9,46.30849,9999999.0,46.30849,9999999.0,-0.35126647,-0.37075442,-0.037188314,-0.37470597,-0.270666,2.222212,-2.4877722,0.15040198,-0.040283203
17:35:52.509;0.03816402,-0.0652115,8.065638,0.49652934,-0.2309438,0.05856073,-18.666416,-36.758694,9.189864,220.8432,0.0,0.0,0.0,0.0,1007.72,29.9,46.14203,9999999.0,46.14203,9999999.0,-0.33124295,-0.3492776,-0.052779816,-0.4632269,-0.27109444,2.2644172,-2.5074024,0.13462768,-0.043823242
17:35:53.061;0.045854107,-0.059830643,8.069075,0.25238872,-0.47508442,-0.0024744272,-18.668333,-36.766956,9.210292,220.84601,0.0,0.0,0.0,0.0,1007.63995,29.9,46.810524,9999999.0,46.810524,9999999.0,-0.21450362,-0.47326127,-0.021035213,-0.4248226,-0.32558212,2.4034834,-2.7691739,0.16689464,-0.04663086
17:35:53.214;0.04434473,-0.05552596,8.064163,0.1303184,-0.16990864,0.18063104,-18.669867,-36.773563,9.189834,220.84827,0.0,0.0,0.0,0.0,1007.75995,29.9,45.80646,9999999.0,45.80646,9999999.0,-0.45201838,-0.4749218,-0.021965733,-0.39449903,-0.3150581,2.4235525,-2.7953398,0.16651358,-0.04888916
17:35:53.247;0.04313723,-0.059743658,8.060234,0.1303184,-0.5361196,-0.0024744272,-18.671093,-36.760452,9.210267,220.8385,0.0,0.0,0.0,0.0,1007.63995,29.9,46.810524,9999999.0,46.810524,9999999.0,-0.4697023,-0.48377892,-0.01646728,-0.424671,-0.30662754,2.427853,-2.8130317,0.1724744,-0.039123535
17:35:53.268;0.04217123,-0.05545637,8.057091,0.37445903,-0.5361196,-0.1855799,-18.672075,-36.74996,9.226614,220.83069,0.0,0.0,0.0,0.0,1007.63995,29.9,46.810524,9999999.0,46.810524,9999999.0,-0.474284,-0.48182923,-0.016815078,-0.39435107,-0.29987922,2.4357166,-2.8242903,0.17242244,-0.031311035
17:35:53.301;0.04139843,-0.05202654,8.054576,0.25238872,-0.2309438,-0.12454474,-18.691261,-36.74157,9.221292,220.80164,0.0,0.0,0.0,0.0,1007.75995,29.9,45.80646,9999999.0,45.80646,9999999.0,-0.47143197,-0.4753616,-0.022525596,-0.37007788,-0.2944767,2.4440455,-2.8319113,0.1662983,-0.0022583008
17:35:53.346;0.040780187,-0.049282677,8.044903,0.31342387,-0.41404927,-0.0024744272,-18.70661,-36.734856,9.217033,220.77838,0.0,0.0,0.0,0.0,1007.63995,29.9,46.810524,9999999.0,46.810524,9999999.0,-0.45935917,-0.47383437,-0.027025532,-0.35098222,-0.29042846,2.4578362,-2.8501296,0.16081834,0.020996094
17:35:53.376;0.040285595,-0.047087587,8.052487,0.49652934,-0.29197896,-0.12454474,-18.700487,-36.747883,9.232027,220.79419,0.0,0.0,0.0,0.0,1007.66,29.9,46.644062,9999999.0,46.644062,9999999.0,-0.45597377,-0.46145734,-0.026456434,-0.3350338,-0.28663638,2.4732285,-2.859181,0.16074163,0.0051879883
17:35:53.430;0.03988992,-0.052992962,8.043232,0.5575645,-0.2309438,-0.12454474,-18.69559,-36.758305,9.244021,220.80681,0.0,0.0,0.0,0.0,1007.69995,29.9,46.30849,9999999.0,46.30849,9999999.0,-0.430818,-0.43987978,-0.03254478,-0.37748405,-0.28414643,2.5027795,-2.8714209,0.15414076,-0.0074310303
17:35:53.471;0.039573383,-0.05771726,8.05115,0.37445903,-0.29197896,-0.0024744272,-18.691671,-36.766644,9.253617,220.81693,0.0,0.0,0.0,0.0,1007.66,29.9,46.644062,9999999.0,46.644062,9999999.0,-0.42388406,-0.4330565,-0.0373711,-0.41073123,-0.28161332,2.5185068,-2.883684,0.14890988,-0.017547607
17:35:53.517;0.039320152,-0.053835254,8.057486,0.31342387,-0.5361196,-0.12454474,-18.688538,-36.773315,9.261294,220.825,0.0,0.0,0.0,0.0,1007.6,29.9,47.14609,9999999.0,47.14609,9999999.0,-0.41792232,-0.439324,-0.037247617,-0.38280556,-0.27959225,2.5329242,-2.9083455,0.14879605,-0.025619507
17:35:53.541;0.039117567,-0.050729647,8.062553,0.25238872,-0.47508442,0.18063104,-18.68603,-36.778652,9.267436,220.83145,0.0,0.0,0.0,0.0,1007.66,29.9,46.644062,9999999.0,46.644062,9999999.0,-0.43205863,-0.4396854,-0.039951384,-0.3604965,-0.27797765,2.5387292,-2.9192724,0.14593153,-0.032073975
17:35:53.583;0.0389555,-0.04824516,8.066607,0.37445903,-0.2309438,0.119595885,-18.684023,-36.78292,9.253949,220.83662,0.0,0.0,0.0,0.0,1007.56,29.9,47.47902,9999999.0,47.47902,9999999.0,-0.42196536,-0.4287918,-0.0322855,-0.34266934,-0.27668735,2.554831,-2.929203,0.15369867,-0.037246704
17:35:53.631;0.04648729,-0.05391902,8.054528,0.25238872,-0.47508442,-0.06350958,-18.682419,-36.786335,9.27996,220.84076,0.0,0.0,0.0,0.0,1007.57996,29.9,47.312557,9999999.0,47.312557,9999999.0,-0.4160144,-0.43665558,-0.026841639,-0.38354012,-0.33067563,2.5669458,-2.952007,0.15943927,-0.041381836
17:35:53.667;0.044851277,-0.05845811,8.052526,0.37445903,-0.41404927,-0.06350958,-18.681135,-36.789066,9.300768,220.84407,0.0,0.0,0.0,0.0,1007.69995,29.9,46.30849,9999999.0,46.30849,9999999.0,-0.42303017,-0.43555954,-0.029439284,-0.4159306,-0.31911656,2.5804262,-2.9669127,0.15715292,-0.044692993
17:35:53.730;0.051203914,-0.062089376,8.058586,0.31342387,-0.29197896,-0.06350958,-18.680109,-36.791252,9.280614,220.84671,0.0,0.0,0.0,0.0,1007.72,29.9,46.14203,9999999.0,46.14203,9999999.0,-0.4163262,-0.43330723,-0.033718236,-0.4414319,-0.36403924,2.6001718,-2.9853075,0.15315181,-0.047332764
17:35:53.758;0.048624575,-0.064994395,8.063434,0.19135356,-0.2309438,0.119595885,-18.679287,-36.793003,9.282891,220.84883,0.0,0.0,0.0,0.0,1007.6,29.9,47.14609,9999999.0,47.14609,9999999.0,-0.4286265,-0.4333009,-0.035775647,-0.46180776,-0.34549284,2.6055298,-2.9917738,0.15137354,-0.049453735
17:35:53.802;0.046561107,-0.059656963,8.051989,0.37445903,-0.2309438,0.18063104,-18.678629,-36.794403,9.284713,220.85052,0.0,0.0,0.0,0.0,1007.66,29.9,46.644062,9999999.0,46.644062,9999999.0,-0.41734496,-0.42535612,-0.031043312,-0.424488,-0.3313035,2.6216316,-3.0017045,0.15651616,-0.05114746
17:35:53.857;0.04491033,-0.06304846,8.050494,0.31342387,-0.41404927,0.05856073,-18.678102,-36.777122,9.28617,220.8403,0.0,0.0,0.0,0.0,1007.66,29.9,46.644062,9999999.0,46.644062,9999999.0,-0.4089295,-0.42946047,-0.021504913,-0.44870296,-0.319616,2.63887,-3.0244772,0.16645087,-0.040924072
17:35:53.900;0.035928264,-0.058100212,8.041637,0.25238872,-0.16990864,-0.0024744272,-18.659283,-36.781696,9.287336,220.8665,0.0,0.0,0.0,0.0,1007.66,29.9,46.644062,9999999.0,46.644062,9999999.0,-0.4182672,-0.42234784,-0.019892145,-0.41394627,-0.25597653,2.649975,-3.0319533,0.16902755,-0.06712341
17:35:53.938;0.03640406,-0.06180306,8.049875,0.37445903,-0.41404927,-0.12454474,-18.644226,-36.78536,9.288269,220.88745,0.0,0.0,0.0,0.0,1007.6,29.9,47.14609,9999999.0,47.14609,9999999.0,-0.40875357,-0.4211797,-0.021347923,-0.43987623,-0.25910008,2.6642046,-3.0476873,0.16893353,-0.08807373
17:35:53.997;0.036784694,-0.057103895,8.048803,0.43549418,-0.47508442,0.05856073,-18.650581,-36.78829,9.270616,220.88142,0.0,0.0,0.0,0.0,1007.66,29.9,46.644062,9999999.0,46.644062,9999999.0,-0.39570555,-0.42049772,-0.029763073,-0.40648565,-0.26184514,2.6898987,-3.0757172,0.16158539,-0.08204651
17:35:54.034;0.0370892,-0.061006006,8.055608,0.19135356,-0.16990864,-0.1855799,-18.655664,-36.79063,9.274893,220.87659,0.0,0.0,0.0,0.0,1007.63995,29.9,46.810524,9999999.0,46.810524,9999999.0,-0.4140147,-0.41700456,-0.028645977,-0.43389437,-0.26378873,2.6967874,-3.0818338,0.16369358,-0.07720947
17:35:54.077;0.037332803,-0.05646625,8.068712,0.37445903,-0.10887349,-0.12454474,-18.65973,-36.792503,9.278315,220.87274,0.0,0.0,0.0,0.0,1007.63995,29.9,46.810524,9999999.0,46.810524,9999999.0,-0.4005369,-0.40252262,-0.037542548,-0.400955,-0.26509118,2.7132635,-3.0866244,0.15552807,-0.07336426
17:35:54.117;0.037527688,-0.06049589,8.071535,0.25238872,-0.16990864,0.05856073,-18.681385,-36.8124,9.262651,220.85843,0.0,0.0,0.0,0.0,1007.69995,29.9,46.30849,9999999.0,46.30849,9999999.0,-0.39366156,-0.39744335,-0.042610776,-0.4294173,-0.26638085,2.7228544,-3.093081,0.15079537,-0.059051514
17:35:54.169;0.037683595,-0.0637196,8.066132,0.25238872,-0.41404927,-0.0024744272,-18.698708,-36.79152,9.231721,220.82385,0.0,0.0,0.0,0.0,1007.66,29.9,46.644062,9999999.0,46.644062,9999999.0,-0.38543746,-0.40458775,-0.03920642,-0.45260215,-0.26766583,2.736231,-3.1150255,0.15389909,-0.024475098
17:35:54.203;0.03780832,-0.058637127,8.06947,0.37445903,-0.41404927,-0.0024744272,-18.712566,-36.774815,9.206977,220.79619,0.0,0.0,0.0,0.0,1007.66,29.9,46.644062,9999999.0,46.644062,9999999.0,-0.39197862,-0.4037098,-0.038443383,-0.41633016,-0.26844192,2.7493372,-3.1295173,0.15381248,0.003189087
17:35:54.244;0.037908103,-0.06223259,8.06448,0.37445903,-0.29197896,-0.06350958,-18.705254,-36.76145,9.223982,220.79683,0.0,0.0,0.0,0.0,1007.82,29.9,45.30443,9999999.0,45.30443,9999999.0,-0.38943246,-0.39876187,-0.03772297,-0.44213077,-0.26931602,2.76469,-3.1414886,0.15371104,0.0025482178
17:35:54.271;0.030326482,-0.06510896,8.068149,0.25238872,-0.2309438,0.05856073,-18.699404,-36.750763,9.237586,220.79733,0.0,0.0,0.0,0.0,1007.66,29.9,46.644062,9999999.0,46.644062,9999999.0,-0.39335555,-0.3959063,-0.038608085,-0.46235657,-0.21535482,2.7715044,-3.1477242,0.15199627,0.0020446777
17:35:54.338;0.03192263,-0.059748616,8.055761,0.31342387,-0.16990864,-0.0024744272,-18.694723,-36.76061,9.211669,220.80933,0.0,0.0,0.0,0.0,1007.54,29.9,47.648125,9999999.0,47.648125,9999999.0,-0.3762148,-0.38422096,-0.034247193,-0.4249448,-0.22703902,2.7921903,-3.1589382,0.15586127,-0.0099487305
17:35:54.368;0.03319955,-0.06312178,8.053513,0.37445903,-0.47508442,0.05856073,-18.70938,-36.768486,9.190935,220.79614,0.0,0.0,0.0,0.0,1007.63995,29.9,46.810524,9999999.0,46.810524,9999999.0,-0.37414163,-0.3858156,-0.033572726,-0.44905958,-0.23618574,2.8037984,-3.1736658,0.15578456,0.0032348633
17:35:54.426;0.034221083,-0.065820314,8.044052,0.37445903,-0.41404927,-0.1855799,-18.702703,-36.75639,9.192748,220.7968,0.0,0.0,0.0,0.0,1007.63995,29.9,46.810524,9999999.0,46.810524,9999999.0,-0.36619118,-0.38727668,-0.029521106,-0.46880698,-0.24373862,2.8255172,-3.1976807,0.15918109,0.0025787354
17:35:54.548;0.03503831,-0.06797914,8.044146,0.49652934,-0.3530141,-0.06350958,-18.697363,-36.76511,9.175798,220.8089,0.0,0.0,0.0,0.0,1007.66,29.9,46.644062,9999999.0,46.644062,9999999.0,-0.3298496,-0.3704501,-0.051309045,-0.48417675,-0.24955577,2.8860939,-3.2407484,0.13654034,-0.009521484
17:35:54.589;0.035692096,-0.0697062,8.04422,0.1303184,-0.3530141,-0.06350958,-18.69309,-36.772087,9.162239,220.81857,0.0,0.0,0.0,0.0,1007.54,29.9,47.648125,9999999.0,47.648125,9999999.0,-0.36773437,-0.379648,-0.05321859,-0.49647224,-0.2542094,2.8914368,-3.255222,0.13393645,-0.019195557
17:35:54.653;0.036215123,-0.063426405,8.036618,0.37445903,-0.29197896,-0.0024744272,-18.689672,-36.777668,9.169791,220.82632,0.0,0.0,0.0,0.0,1007.66,29.9,46.644062,9999999.0,46.644062,9999999.0,-0.35761246,-0.37393674,-0.056676477,-0.4521744,-0.2581801,2.9154022,-3.2739089,0.12987183,-0.026947021
17:35:54.829;0.036633544,-0.066064015,8.045859,0.61859965,-0.3530141,-0.0024744272,-18.686937,-36.782135,9.157433,220.83252,0.0,0.0,0.0,0.0,1007.63995,29.9,46.810524,9999999.0,46.810524,9999999.0,-0.26917064,-0.32989237,-0.05663258,-0.4704364,-0.2608624,3.0242758,-3.3360393,0.12943633,-0.03314209
17:35:54.871;0.03696828,-0.0681741,8.045591,0.37445903,-0.29197896,0.05856073,-18.68475,-36.78571,9.147546,220.83748,0.0,0.0,0.0,0.0,1007.57996,29.9,47.312557,9999999.0,47.312557,9999999.0,-0.3179583,-0.32859594,-0.056361374,-0.4854775,-0.26325417,3.0396285,-3.3480105,0.12933488,-0.038101196
17:35:55.014;0.03723607,-0.062200725,8.045377,0.37445903,-0.3530141,0.119595885,-18.7014,-36.788567,9.158036,220.81866,0.0,0.0,0.0,0.0,1007.63995,29.9,46.810524,9999999.0,46.810524,9999999.0,-0.27803946,-0.3275994,-0.047355797,-0.44295377,-0.26516974,3.0935507,-3.3988445,0.13776763,-0.01928711
17:35:55.041;0.045111746,-0.065083474,8.037543,0.37445903,-0.2309438,-0.1855799,-18.677921,-36.772453,9.166429,220.8376,0.0,0.0,0.0,0.0,1007.57996,29.9,47.312557,9999999.0,47.312557,9999999.0,-0.32078484,-0.32668492,-0.044125844,-0.46393132,-0.32156602,3.1032865,-3.404849,0.14087713,-0.038223267
17:35:55.078;0.04375084,-0.059728224,8.046599,0.19135356,-0.16990864,0.05856073,-18.677538,-36.796364,9.154743,220.85312,0.0,0.0,0.0,0.0,1007.72,29.9,46.14203,9999999.0,46.14203,9999999.0,-0.32153082,-0.32765794,-0.051229153,-0.42528048,-0.31151605,3.110558,-3.4113057,0.1338251,-0.053741455
17:35:55.207;0.042662118,-0.055444025,8.053844,0.19135356,-0.2309438,-0.06350958,-18.67723,-36.81549,9.1637945,220.86551,0.0,0.0,0.0,0.0,1007.57996,29.9,47.312557,9999999.0,47.312557,9999999.0,-0.3048023,-0.333972,-0.044123955,-0.39442205,-0.30349213,3.1352427,-3.4410975,0.14137943,-0.06613159
17:35:55.350;0.049452584,-0.052016664,8.067302,0.43549418,-0.41404927,0.119595885,-18.676985,-36.812393,9.171036,220.86386,0.0,0.0,0.0,0.0,1007.69995,29.9,46.30849,9999999.0,46.30849,9999999.0,-0.27919906,-0.3333892,-0.05262227,-0.3694219,-0.3512116,3.1918569,-3.4949238,0.13312319,-0.06448364
17:35:55.422;0.047223512,-0.049274776,8.062745,0.31342387,0.07423198,-0.06350958,-18.658388,-36.809914,9.176828,220.88533,0.0,0.0,0.0,0.0,1007.6,29.9,47.14609,9999999.0,47.14609,9999999.0,-0.30761614,-0.30199173,-0.04332654,-0.35014787,-0.33557138,3.218498,-3.488614,0.14328884,-0.08595276
17:35:55.461;0.045440257,-0.054742713,8.051438,0.25238872,-0.41404927,0.05856073,-18.64351,-36.80793,9.181462,220.90251,0.0,0.0,0.0,0.0,1007.6,29.9,47.14609,9999999.0,47.14609,9999999.0,-0.2940966,-0.31050667,-0.04695003,-0.3895488,-0.3233518,3.228341,-3.504762,0.14081196,-0.103134155
17:35:55.583;0.04401365,-0.05911706,8.050055,0.37445903,-0.29197896,0.18063104,-18.631609,-36.806343,9.18517,220.91626,0.0,0.0,0.0,0.0,1007.63995,29.9,46.810524,9999999.0,46.810524,9999999.0,-0.26830813,-0.30382988,-0.041404545,-0.42074826,-0.31325293,3.2736506,-3.5400913,0.14789781,-0.116882324
17:35:55.590;0.03521092,-0.06261654,8.048947,0.43549418,-0.3530141,-0.06350958,-18.622087,-36.805073,9.188136,220.92728,0.0,0.0,0.0,0.0,1007.66,29.9,46.644062,9999999.0,46.644062,9999999.0,-0.30325335,-0.30496866,-0.04171829,-0.4457175,-0.25063688,3.2771347,-3.5429153,0.14934286,-0.12789917
17:35:56.039;0.03583018,-0.05775468,8.048061,0.43549418,-0.41404927,-0.0024744272,-18.63287,-36.822456,9.190509,220.9248,0.0,0.0,0.0,0.0,1007.6,29.9,47.14609,9999999.0,47.14609,9999999.0,-0.115466245,-0.30044836,-0.07133795,-0.41115615,-0.25507405,3.4726715,-3.7288234,0.120827064,-0.12542725
17:35:56.108;0.043987036,-0.061526634,8.047353,0.31342387,-0.16990864,-0.12454474,-18.659897,-36.817966,9.192407,220.88852,0.0,0.0,0.0,0.0,1007.54,29.9,47.648125,9999999.0,47.648125,9999999.0,-0.28231367,-0.29425347,-0.07185893,-0.43804407,-0.31316793,3.4939842,-3.7403772,0.1206588,-0.089141846
17:35:56.342;0.058173966,-0.056882754,8.046785,0.19135356,-0.10887349,0.05856073,-18.663118,-36.814373,9.193925,220.88226,0.0,0.0,0.0,0.0,1007.6,29.9,47.14609,9999999.0,47.14609,9999999.0,-0.2523998,-0.2807094,-0.100762114,-0.40500674,-0.41420037,3.5389524,-3.7659624,0.09139079,-0.08288574
17:35:56.556;0.05420062,-0.060829096,8.046331,0.31342387,-0.3530141,-0.0024744272,-18.647295,-36.7931,9.19514,220.88852,0.0,0.0,0.0,0.0,1007.69995,29.9,46.30849,9999999.0,46.30849,9999999.0,-0.21802652,-0.29541874,-0.08824835,-0.4331297,-0.38593128,3.606025,-3.8415074,0.103922784,-0.089141846
17:35:56.589;0.058683388,-0.06398617,8.045969,0.37445903,-0.29197896,0.119595885,-18.634636,-36.776077,9.196112,220.89352,0.0,0.0,0.0,0.0,1007.69995,29.9,46.30849,9999999.0,46.30849,9999999.0,-0.28687987,-0.29865605,-0.08844392,-0.45562723,-0.41786695,3.6180077,-3.8508508,0.1038436,-0.09414673
17:35:56.660;0.054608155,-0.058850378,8.05334,0.43549418,-0.5361196,-0.06350958,-18.642908,-36.799263,9.17849,220.89783,0.0,0.0,0.0,0.0,1007.6,29.9,47.14609,9999999.0,47.14609,9999999.0,-0.27075475,-0.31041276,-0.080322556,-0.41867608,-0.3884954,3.6489277,-3.8889153,0.11233491,-0.09844971
17:35:56.736;0.05134797,-0.054741748,8.059237,0.19135356,-0.3530141,-0.36868536,-18.649527,-36.79941,9.182792,220.88971,0.0,0.0,0.0,0.0,1007.72,29.9,46.14203,9999999.0,46.14203,9999999.0,-0.29773575,-0.32537425,-0.08525294,-0.38916332,-0.36503637,3.6634705,-3.9157443,0.10750818,-0.09033203
17:35:56.857;0.04873982,-0.051454842,8.063954,0.31342387,-0.41404927,0.05856073,-18.673222,-36.79953,9.1862335,220.86044,0.0,0.0,0.0,0.0,1007.6,29.9,47.14609,9999999.0,47.14609,9999999.0,-0.28870547,-0.33936095,-0.12884922,-0.36558384,-0.3462935,3.7017083,-3.9662583,0.062528566,-0.061065674
17:35:56.883;0.038991857,-0.056486763,8.060067,0.19135356,-0.6581899,-0.0024744272,-18.673777,-36.799625,9.207387,220.85982,0.0,0.0,0.0,0.0,1007.63995,29.9,46.810524,9999999.0,46.810524,9999999.0,-0.33572865,-0.3513281,-0.1259889,-0.40153044,-0.27716848,3.7066834,-3.9833713,0.064051144,-0.060440063
17:35:56.939;0.03885493,-0.0605123,8.07228,0.37445903,-0.41404927,0.05856073,-18.692621,-36.8181,9.18751,220.8481,0.0,0.0,0.0,0.0,1007.63995,29.9,46.810524,9999999.0,46.810524,9999999.0,-0.33234107,-0.35393283,-0.12457934,-0.4294938,-0.27577633,3.727653,-4.006558,0.06391258,-0.048721313
17:35:57.217;0.031083945,-0.056071285,8.0743885,0.25238872,-0.2309438,-0.12454474,-18.652496,-36.81448,9.190007,220.8955,0.0,0.0,0.0,0.0,1007.54,29.9,47.648125,9999999.0,47.648125,9999999.0,-0.28629816,-0.3476755,-0.10811316,-0.39787194,-0.22056496,3.7975647,-4.0705295,0.0801339,-0.09611511
17:35:57.309;0.0325286,-0.052518472,8.076076,0.25238872,-0.3530141,-0.12454474,-18.620398,-36.811584,9.192006,220.93344,0.0,0.0,0.0,0.0,1007.57996,29.9,47.312557,9999999.0,47.312557,9999999.0,-0.32517096,-0.35545665,-0.11998318,-0.37258443,-0.23076828,3.8210368,-4.1033597,0.06855124,-0.13406372
17:35:57.656;0.03368433,-0.057337668,8.077425,0.37445903,-0.47508442,-0.06350958,-18.61312,-36.790867,9.212005,220.92947,0.0,0.0,0.0,0.0,1007.57996,29.9,47.312557,9999999.0,47.312557,9999999.0,-0.22951004,-0.39079002,-0.16241607,-0.4067042,-0.2389264,3.9505997,-4.267739,0.025458764,-0.13009644
17:35:57.776;0.034608908,-0.061193027,8.063182,0.43549418,-0.47508442,0.119595885,-18.625696,-36.811092,9.246404,220.92657,0.0,0.0,0.0,0.0,1007.6,29.9,47.14609,9999999.0,47.14609,9999999.0,-0.34045643,-0.39443555,-0.16918042,-0.43481624,-0.2459172,4.002859,-4.324749,0.017837614,-0.12719727
17:35:57.822;0.03534857,-0.06427731,8.06711,0.25238872,-0.3530141,0.119595885,-18.635757,-36.808872,9.237123,220.91272,0.0,0.0,0.0,0.0,1007.57996,29.9,47.312557,9999999.0,47.312557,9999999.0,-0.38405198,-0.3976518,-0.16255507,-0.45650864,-0.25104985,4.0147214,-4.3413405,0.02345862,-0.113342285
17:35:58.067;0.035940304,-0.066744745,8.062592,0.31342387,-0.41404927,-0.12454474,-18.643806,-36.8071,9.229698,220.90163,0.0,0.0,0.0,0.0,1007.63995,29.9,46.810524,9999999.0,46.810524,9999999.0,-0.32393163,-0.42197412,-0.13263398,-0.47429746,-0.25539476,4.0915103,-4.4427824,0.052759614,-0.102249146
17:35:58.098;0.03641369,-0.06871869,8.058977,0.31342387,-0.2309438,-0.06350958,-18.631845,-36.80568,9.223759,220.91556,0.0,0.0,0.0,0.0,1007.75995,29.9,45.80646,9999999.0,45.80646,9999999.0,-0.41378367,-0.41770154,-0.1360886,-0.4885428,-0.25887412,4.1012263,-4.4499416,0.048898727,-0.11618042
17:35:58.132;0.036792397,-0.07029784,8.056086,0.5575645,-0.29197896,0.05856073,-18.659077,-36.786144,9.237407,220.86955,0.0,0.0,0.0,0.0,1007.77997,29.9,45.639996,9999999.0,45.639996,9999999.0,-0.4007684,-0.40771496,-0.13688646,-0.49994817,-0.26165986,4.1201835,-4.459869,0.0467394,-0.07017517
17:35:58.200;0.037095364,-0.07156116,8.061434,0.37445903,-0.29197896,0.05856073,-18.662462,-36.788914,9.229925,220.8671,0.0,0.0,0.0,0.0,1007.66,29.9,46.644062,9999999.0,46.644062,9999999.0,-0.3847786,-0.4018133,-0.13160062,-0.5085945,-0.2636391,4.1456466,-4.4797235,0.05072153,-0.067718506
17:35:58.247;0.037337735,-0.064910375,8.073374,0.31342387,-0.29197896,0.05856073,-18.66517,-36.79113,9.22394,220.86514,0.0,0.0,0.0,0.0,1007.69995,29.9,46.30849,9999999.0,46.30849,9999999.0,-0.38855365,-0.39953056,-0.12758662,-0.4606464,-0.26497105,4.1603775,-4.4934464,0.053473882,-0.06576538
17:35:58.406;0.037531633,-0.059589744,8.075264,0.61859965,-0.3530141,-0.0024744272,-18.685738,-36.792904,9.2191515,220.84079,0.0,0.0,0.0,0.0,1007.69995,29.9,46.30849,9999999.0,46.30849,9999999.0,-0.30421177,-0.35811394,-0.11679559,-0.42279014,-0.26628605,4.2581162,-4.5492225,0.062726475,-0.041412354
17:35:58.450;0.030025307,-0.05533324,8.061453,0.37445903,-0.5361196,0.05856073,-18.68379,-36.794323,9.196921,220.84409,0.0,0.0,0.0,0.0,1007.63995,29.9,46.810524,9999999.0,46.810524,9999999.0,-0.34267032,-0.3632023,-0.115460545,-0.39326528,-0.21339515,4.2745924,-4.5728116,0.0626176,-0.044708252
17:35:58.507;0.03168169,-0.059589483,8.065727,0.43549418,-0.3530141,-0.12454474,-18.682232,-36.79546,9.179137,220.84673,0.0,0.0,0.0,0.0,1007.66,29.9,46.644062,9999999.0,46.644062,9999999.0,-0.33965057,-0.3574238,-0.110769704,-0.42328948,-0.22504707,4.299851,-4.5932865,0.066014126,-0.047348022
17:35:58.578;0.0330068,-0.06299448,8.069147,0.43549418,-0.5361196,-0.12454474,-18.680986,-36.796368,9.164909,220.84885,0.0,0.0,0.0,0.0,1007.63995,29.9,46.810524,9999999.0,46.810524,9999999.0,-0.32891935,-0.36433136,-0.11820951,-0.4472857,-0.23435959,4.330771,-4.631351,0.05717145,-0.049468994
17:35:58.676;0.034066886,-0.06571847,8.048899,0.19135356,-0.41404927,0.119595885,-18.679989,-36.815495,9.153527,220.86209,0.0,0.0,0.0,0.0,1007.57996,29.9,47.312557,9999999.0,47.312557,9999999.0,-0.34802315,-0.38567784,-0.12906086,-0.46779987,-0.2424943,4.3495235,-4.671928,0.044966064,-0.06271362
17:35:58.752;0.034914955,-0.060236223,8.040361,0.37445903,-0.41404927,0.05856073,-18.697592,-36.812397,9.144422,220.83836,0.0,0.0,0.0,0.0,1007.63995,29.9,46.810524,9999999.0,46.810524,9999999.0,-0.3590262,-0.3872542,-0.118469074,-0.42923248,-0.24879614,4.377608,-4.7029815,0.053935755,-0.038986206
17:35:58.804;0.03559341,-0.06351187,8.041193,0.43549418,-0.59715474,-0.1855799,-18.693274,-36.809917,9.137137,220.84215,0.0,0.0,0.0,0.0,1007.72,29.9,46.14203,9999999.0,46.14203,9999999.0,-0.3659401,-0.3947096,-0.11391346,-0.45252624,-0.25360355,4.400689,-4.7346306,0.057039473,-0.042770386
17:35:59.001;0.036136173,-0.058470942,8.05718,0.43549418,-0.29197896,-0.0024744272,-18.68982,-36.807934,9.1313095,220.84518,0.0,0.0,0.0,0.0,1007.57996,29.9,47.312557,9999999.0,47.312557,9999999.0,-0.31105456,-0.36634213,-0.14837939,-0.41578388,-0.25696108,4.4864817,-4.7921505,0.020480234,-0.045806885
17:35:59.506;0.04423183,-0.06976109,8.046987,0.19135356,-0.47508442,0.05856073,-18.687056,-36.806347,9.126648,220.8476,0.0,0.0,0.0,0.0,1007.63995,29.9,46.810524,9999999.0,46.810524,9999999.0,-0.27593595,-0.5076447,-0.14757892,-0.4966897,-0.3149224,4.5813932,-5.0277925,0.019252919,-0.048217773
17:35:59.548;0.043046907,-0.071131766,8.054154,0.37445903,-0.41404927,-0.06350958,-18.703245,-36.805077,9.141318,220.82677,0.0,0.0,0.0,0.0,1007.63995,29.9,46.810524,9999999.0,46.810524,9999999.0,-0.4888963,-0.5059368,-0.14224829,-0.50599796,-0.30621296,4.6004906,-5.048909,0.022239516,-0.027389526
17:35:59.577;0.04209897,-0.072228305,8.052227,0.49652934,-0.41404927,-0.0024744272,-18.716196,-36.80406,9.153054,220.81012,0.0,0.0,0.0,0.0,1007.66,29.9,46.644062,9999999.0,46.644062,9999999.0,-0.4919851,-0.49990356,-0.14142312,-0.51392114,-0.29954126,4.61489,-5.0609164,0.020397738,-0.0107421875
17:35:59.631;0.049002066,-0.06544409,8.058347,0.31342387,-0.59715474,-0.06350958,-18.708157,-36.78485,9.162443,220.80797,0.0,0.0,0.0,0.0,1007.69995,29.9,46.30849,9999999.0,46.30849,9999999.0,-0.48293218,-0.51125765,-0.13889499,-0.46529624,-0.3483946,4.6315017,-5.0925655,0.020266593,-0.008590698
17:35:59.707;0.054524545,-0.06767816,8.055581,0.49652934,-0.2309438,-0.0024744272,-18.701725,-36.78788,9.169954,220.81784,0.0,0.0,0.0,0.0,1007.56,29.9,47.47902,9999999.0,47.47902,9999999.0,-0.4736778,-0.48916075,-0.14121655,-0.48134243,-0.3877893,4.669238,-5.1101174,0.015439864,-0.018463135
17:35:59.736;0.05128108,-0.06946542,8.061029,0.37445903,-0.41404927,0.18063104,-18.67818,-36.790302,9.175963,220.84851,0.0,0.0,0.0,0.0,1007.6,29.9,47.14609,9999999.0,47.14609,9999999.0,-0.47860983,-0.48809442,-0.13944522,-0.49372062,-0.36447462,4.6800976,-5.1221247,0.015368106,-0.0491333
17:35:59.890;0.04868631,-0.063233785,8.057727,0.49652934,-0.3530141,-0.12454474,-18.677744,-36.79224,9.180771,220.85025,0.0,0.0,0.0,0.0,1007.66,29.9,46.644062,9999999.0,46.644062,9999999.0,-0.41238865,-0.4643413,-0.11041293,-0.4496167,-0.34617707,4.756563,-5.176489,0.043185286,-0.050872803
17:35:59.932;0.046610493,-0.058248475,8.055085,0.37445903,-0.41404927,0.05856073,-18.695795,-36.77539,9.184617,220.81732,0.0,0.0,0.0,0.0,1007.6,29.9,47.14609,9999999.0,47.14609,9999999.0,-0.4475609,-0.46268827,-0.11381188,-0.41430694,-0.33152783,4.772665,-5.194293,0.03782986,-0.017944336
17:36:00.003;0.04494984,-0.06192167,8.052972,0.31342387,-0.41404927,0.05856073,-18.691835,-36.78031,9.187694,220.82532,0.0,0.0,0.0,0.0,1007.54,29.9,47.648125,9999999.0,47.648125,9999999.0,-0.44043744,-0.4668342,-0.10797979,-0.44054857,-0.31979913,4.794918,-5.2236905,0.041987672,-0.025939941
17:36:00.270;0.043621317,-0.05719878,8.051281,0.31342387,-0.5361196,0.05856073,-18.68867,-36.80265,9.190155,220.84328,0.0,0.0,0.0,0.0,1007.6,29.9,47.14609,9999999.0,47.14609,9999999.0,-0.3836277,-0.52244455,-0.09137519,-0.40703407,-0.31041393,4.878602,-5.3668346,0.057623386,-0.043899536
17:36:00.337;0.0425585,-0.05342047,8.049929,0.37445903,-0.29197896,-0.0024744272,-18.667736,-36.783722,9.173724,220.8573,0.0,0.0,0.0,0.0,1007.63995,29.9,46.810524,9999999.0,46.810524,9999999.0,-0.4950129,-0.510342,-0.08686104,-0.38021204,-0.3029028,4.903691,-5.3863974,0.061546955,-0.057922363
17:36:00.398;0.0340468,-0.058059268,8.048846,0.31342387,-0.16990864,-0.0024744272,-18.65099,-36.768578,9.197379,220.86853,0.0,0.0,0.0,0.0,1007.63995,29.9,46.810524,9999999.0,46.810524,9999999.0,-0.48997152,-0.49500984,-0.086652376,-0.4132845,-0.24235468,4.9224963,-5.3965917,0.06139849,-0.06915283
17:36:00.690;0.05788322,-0.061770305,8.063303,0.43549418,-0.3530141,-0.06350958,-18.655993,-36.77486,9.197904,220.86627,0.0,0.0,0.0,0.0,1007.6,29.9,47.14609,9999999.0,47.14609,9999999.0,-0.39231306,-0.4750295,-0.086834356,-0.43890417,-0.41128433,5.026144,-5.480609,0.06080958,-0.06689453
17:36:00.817;0.053968024,-0.05707769,8.067207,0.37445903,-0.3530141,-0.06350958,-18.641594,-36.76149,9.198323,220.87572,0.0,0.0,0.0,0.0,1007.66,29.9,46.644062,9999999.0,46.644062,9999999.0,-0.40721473,-0.46935374,-0.097889796,-0.40536743,-0.38328212,5.093921,-5.5445046,0.049314342,-0.07633972
17:36:00.878;0.050835863,-0.060985044,8.06267,0.19135356,-0.3530141,-0.06350958,-18.666876,-36.750793,9.180259,220.83765,0.0,0.0,0.0,0.0,1007.66,29.9,46.644062,9999999.0,46.644062,9999999.0,-0.4571948,-0.4763789,-0.10049399,-0.43336135,-0.36123997,5.1055937,-5.5660386,0.045440257,-0.038269043
17:36:00.938;0.048330136,-0.05644948,8.066701,0.49652934,-0.3530141,0.3637365,-18.650301,-36.760635,9.184207,220.86438,0.0,0.0,0.0,0.0,1007.6,29.9,47.14609,9999999.0,47.14609,9999999.0,-0.44567403,-0.46438307,-0.10351852,-0.40093294,-0.3432645,5.1353855,-5.587219,0.041629683,-0.06500244
17:36:01.007;0.046325553,-0.05282103,8.062264,0.37445903,-0.41404927,0.05856073,-18.637041,-36.76851,9.187366,220.88577,0.0,0.0,0.0,0.0,1007.77997,29.9,45.639996,9999999.0,45.639996,9999999.0,-0.43728188,-0.46311843,-0.07858019,-0.37536958,-0.3292093,5.1612234,-5.6157885,0.066727504,-0.08639526
17:36:01.044;0.052383333,-0.049918268,8.074038,0.43549418,-0.2309438,-0.06350958,-18.626432,-36.75641,9.189893,220.89133,0.0,0.0,0.0,0.0,1007.63995,29.9,46.810524,9999999.0,46.810524,9999999.0,-0.4447227,-0.45186293,-0.07666678,-0.35422295,-0.37171546,5.177772,-5.624564,0.068952814,-0.09194946
17:36:01.110;0.049568113,-0.055257507,8.068133,0.37445903,-0.41404927,-0.1855799,-18.636347,-36.765125,9.191915,220.88452,0.0,0.0,0.0,0.0,1007.57996,29.9,47.312557,9999999.0,47.312557,9999999.0,-0.42682058,-0.45210478,-0.08094413,-0.39239717,-0.35199484,5.2021117,-5.651891,0.064761184,-0.08514404
17:36:01.309;0.03965449,-0.05186745,8.086394,0.37445903,-0.5361196,0.119595885,-18.644278,-36.7537,9.193532,220.8675,0.0,0.0,0.0,0.0,1007.66,29.9,46.644062,9999999.0,46.644062,9999999.0,-0.3770186,-0.4796515,-0.116879344,-0.367495,-0.28096205,5.2770033,-5.7585793,0.027830783,-0.068115234
17:36:01.468;0.039385036,-0.056816854,8.078019,0.31342387,-0.3530141,0.05856073,-18.650621,-36.74456,9.213225,220.85388,0.0,0.0,0.0,0.0,1007.6,29.9,47.14609,9999999.0,47.14609,9999999.0,-0.4298947,-0.48119837,-0.09723083,-0.4029792,-0.27934107,5.326211,-5.8140025,0.046607338,-0.054504395
17:36:01.936;-0.083413646,0.13842121,8.002366,-0.6021035,-1.4516469,-0.36868536,-18.692497,-36.82925,9.192181,220.85526,0.0,0.0,0.0,0.0,1007.69995,29.9,46.30849,9999999.0,46.30849,9999999.0,-0.72908485,-1.3711894,-0.069430694,0.9909231,0.5971187,5.0432224,-6.4962764,0.07413088,-0.055877686
17:36:01.975;-0.08205381,0.22565866,7.987812,0.25238872,-1.085436,-0.0024744272,-18.744398,-36.8786,9.175344,220.82208,2226.1797,1863.8171,1908.3969,1445.5045,1007.63995,29.9,46.810524,9999999.0,46.810524,9999999.0,-1.3017571,-1.3054411,-0.08258733,1.6181114,0.5883084,5.053066,-6.5386086,0.059752148,-0.022705078
17:36:02.008;-0.111611724,0.24181849,8.052783,-0.052787066,0.37940776,-0.06350958,-18.78592,-36.91808,9.161876,220.79562,2487.1497,2291.1257,1382.2338,2064.978,1007.66,29.9,46.644062,9999999.0,46.644062,9999999.0,-1.2466422,-1.1935651,-0.08094054,1.7198634,0.793712,5.051324,-6.526088,0.059670493,0.003753662
17:36:02.165;-0.2271954,0.27006924,8.189036,1.6561973,1.3559703,-0.1855799,-18.800735,-36.968063,9.187901,220.80872,2532.073,2500.8337,2014.7749,2437.835,1007.6,29.9,47.14609,9999999.0,47.14609,9999999.0,-0.87710804,-0.61916965,-0.08928008,1.888168,1.5883348,5.311347,-6.313201,0.04969949,-0.009338379
17:36:02.570;-0.25070933,0.2543626,8.206101,1.2289512,-0.10887349,0.60787714,-18.79419,-37.02645,9.171921,220.85327,2569.373,2557.109,2391.9631,2538.071,1007.6,29.9,47.14609,9999999.0,47.14609,9999999.0,-0.08352379,-0.09008339,-0.16222902,1.774588,1.7490925,5.8090725,-6.3572946,-0.025460366,-0.053894043
17:36:02.657;-0.19290602,0.21115154,8.227415,1.1068809,0.5014781,0.42477167,-18.770552,-37.073162,9.177537,220.9115,2607.7886,2609.6033,2510.8804,2572.4578,1007.54,29.9,47.648125,9999999.0,47.648125,9999999.0,0.0354856,0.104386106,-0.10939927,1.4697344,1.3427109,5.905371,-6.313666,0.027424943,-0.11212158
17:36:02.718;-0.10069469,0.15359834,8.183174,0.43549418,-0.10887349,0.42477167,-18.770042,-37.03693,9.18203,220.88953,2636.2039,2656.748,2561.9128,2615.063,1007.63995,29.9,46.810524,9999999.0,46.810524,9999999.0,0.14983691,0.15442911,-0.083621405,1.0752352,0.70487,5.9319363,-6.3203073,0.053336017,-0.090148926
17:36:02.736;0.026704498,0.12287867,8.14012,-0.052787066,-0.9023305,0.05856073,-18.769634,-37.007942,9.185624,220.87195,2667.615,2699.7842,2606.4292,2645.9692,1007.6,29.9,47.14609,9999999.0,47.14609,9999999.0,0.16770603,0.14467596,-0.075907424,0.86483455,-0.1879426,5.930986,-6.3365493,0.060981907,-0.0725708
17:36:02.797;0.05200938,0.021688484,8.067369,0.25238872,-0.10887349,0.48580682,-18.806107,-37.039955,9.188499,220.84705,2617.8013,2738.7256,2652.989,2674.7505,1007.6,29.9,47.14609,9999999.0,47.14609,9999999.0,0.15995088,0.14285597,-0.07184189,0.15403159,-0.3693727,5.9463816,-6.3431907,0.06455411,-0.047668457
17:36:02.878;0.026284613,-0.051602222,8.055138,1.5951622,0.56251323,0.119595885,-18.835285,-37.139164,9.2092,220.87305,2488.8005,2776.2356,2692.515,2710.027,1007.66,29.9,46.644062,9999999.0,46.644062,9999999.0,0.25928208,0.29500964,-0.033315092,-0.36703697,-0.1869566,6.0755897,-6.297627,0.10390446,-0.07366943
17:36:03.133;0.028689135,-0.07958901,8.053014,0.31342387,-0.41404927,0.05856073,-18.821829,-36.99773,9.20736,220.80132,2357.0083,2808.9888,2727.7686,2736.7268,1007.66,29.9,46.644062,9999999.0,46.644062,9999999.0,0.3561093,0.24143405,-0.0028005375,-0.5662398,-0.20410733,6.155513,-6.4032097,0.13440141,-0.0019378662
17:36:03.297;0.030612754,-0.06367121,8.051314,0.25238872,-0.2309438,-0.06350958,-18.921463,-37.031784,9.242688,220.70024,2220.9063,2800.0747,2756.8462,2735.2297,1007.63995,29.9,46.810524,9999999.0,46.810524,9999999.0,0.26810744,0.22127116,0.008650079,-0.45309237,-0.21784247,6.1969047,-6.4410844,0.14400537,0.09913635
17:36:03.523;0.032151647,-0.06625986,8.057616,0.37445903,-0.59715474,0.05856073,-18.96437,-37.02223,9.234151,220.64163,2080.7322,2690.583,2788.6223,2623.2952,1007.51996,29.9,47.81459,9999999.0,47.81459,9999999.0,0.29035807,0.1477208,-0.0024341205,-0.47114363,-0.22861372,6.2815323,-6.576041,0.1296522,0.15774536
17:36:03.588;0.025721317,-0.060669333,8.062658,0.31342387,-0.16990864,-0.24661505,-19.017097,-36.99618,9.264121,220.56064,1935.2341,2578.2056,2721.829,2504.1738,1007.69995,29.9,46.30849,9999999.0,46.30849,9999999.0,0.15580183,0.13837358,0.006062267,-0.431125,-0.18277796,6.3015914,-6.5869155,0.13340008,0.23873901
17:36:03.638;0.020577054,-0.056196913,8.066691,0.37445903,-0.5361196,-0.24661505,-19.059278,-36.993744,9.251297,220.50745,1783.379,2463.0542,2602.3594,2381.3306,1007.57996,29.9,47.312557,9999999.0,47.312557,9999999.0,0.14633867,0.11369365,-5.4618064E-4,-0.39914548,-0.14615004,6.3206887,-6.614258,0.12082271,0.29193115
17:36:03.692;0.02412309,-0.06028042,8.062257,0.31342387,-0.2309438,-0.12454474,-19.111423,-36.991795,9.259438,220.44243,1624.4315,2345.2158,2479.7485,2252.2522,1007.66,29.9,46.644062,9999999.0,46.644062,9999999.0,0.119131364,0.10132493,-0.006205472,-0.42838302,-0.17142947,6.3373003,-6.6264977,0.107752115,0.35694885
17:36:03.828;0.026959917,-0.05588578,8.06637,0.25238872,-0.47508442,-0.06350958,-19.15314,-36.990234,9.28435,220.39047,1455.3215,2223.8694,2354.049,2126.4531,1007.63995,29.9,46.810524,9999999.0,46.810524,9999999.0,0.1249978,0.05534875,-0.014502592,-0.39695057,-0.19149216,6.371625,-6.691109,0.09081403,0.40890503
17:36:03.898;0.036890823,-0.060031515,8.061999,0.31342387,-0.59715474,-0.12454474,-19.168112,-37.00739,9.28588,220.38303,1273.7772,2099.37,2224.8591,1992.561,1007.63995,29.9,46.810524,9999999.0,46.810524,9999999.0,0.06751732,0.019373547,-0.01030452,-0.42662528,-0.2621701,6.393878,-6.733507,0.08630485,0.41635132
17:36:04.038;0.037174106,-0.055686656,8.066164,0.31342387,-0.16990864,-0.12454474,-19.18009,-37.002712,9.287105,220.36545,1074.2678,1971.0906,2092.6338,1853.2246,1007.6,29.9,47.14609,9999999.0,47.14609,9999999.0,0.05407695,0.024402995,-0.018507387,-0.39554438,-0.2640479,6.4377575,-6.757294,0.068868585,0.43392944
17:36:04.131;0.03740073,-0.067533664,8.054173,0.31342387,-0.2309438,-0.06350958,-19.189672,-36.980568,9.288084,220.33974,845.6898,1838.2354,1955.6715,1708.8175,1007.57996,29.9,47.312557,9999999.0,47.312557,9999999.0,0.042872302,0.015645642,-0.020295449,-0.48040456,-0.26605004,6.466906,-6.778772,0.057285924,0.4596405
17:36:04.146;0.03758203,-0.06168838,8.052242,0.37445903,-0.29197896,-0.0024744272,-19.215738,-36.981255,9.270467,220.30836,556.4417,1700.6803,1813.7848,1558.1177,1007.66,29.9,46.644062,9999999.0,46.644062,9999999.0,0.0120586725,0.0021773065,-0.01100289,-0.43893066,-0.26740536,6.4725227,-6.7831516,0.05633328,0.49101257
17:36:04.195;0.03772707,-0.05701215,8.058359,0.37445903,-0.2309438,0.05856073,-19.236591,-36.981804,9.256373,220.28328,0.0,1556.1781,1665.9263,1398.2103,1007.57996,29.9,47.312557,9999999.0,47.312557,9999999.0,0.0120082665,-0.0046865093,-5.797036E-4,-0.40535116,-0.26823476,6.4908714,-6.794468,0.056212034,0.516098
17:36:04.967;0.0378431,-0.06093261,8.063252,0.49652934,-0.3530141,0.18063104,-19.234873,-36.982243,9.263499,220.28564,0.0,1403.8373,1510.1177,1228.0989,1007.56,29.9,47.47902,9999999.0,47.47902,9999999.0,0.36240226,0.08269996,0.054011244,-0.43296131,-0.26889548,6.874192,-7.0669947,0.10142092,0.5137329
17:36:05.041;0.037935928,-0.056407534,8.074828,0.31342387,-0.5361196,0.119595885,-19.233498,-36.982594,9.269199,220.28755,0.0,1241.2081,1344.6885,1041.8113,1007.66,29.9,46.644062,9999999.0,46.644062,9999999.0,0.09546362,0.049816962,0.07608987,-0.40023458,-0.26916975,6.8970723,-7.1061316,0.114606984,0.51182556
17:36:05.085;0.030348742,-0.06811036,8.061105,0.19135356,-0.47508442,-0.0024744272,-19.2508,-36.982876,9.27376,220.26663,0.0,1064.5093,1166.2261,829.8296,1007.66,29.9,46.644062,9999999.0,46.644062,9999999.0,0.04757749,0.021360708,0.09049714,-0.48409194,-0.21570054,6.905683,-7.1275105,0.1199888,0.53274536
17:36:05.140;0.031940438,-0.06981118,8.065449,0.37445903,-0.3530141,0.05856073,-19.227839,-36.9831,9.277408,220.29477,0.0,866.1008,968.1792,568.67725,1007.66,29.9,46.644062,9999999.0,46.644062,9999999.0,0.031198602,0.0070093637,0.098645985,-0.49591222,-0.22689056,6.926278,-7.1469264,0.11985271,0.50460815
17:36:05.178;0.033213794,-0.071171835,8.061262,0.43549418,-0.41404927,-0.0024744272,-19.20947,-36.98328,9.280326,220.31729,0.0,628.45654,737.60815,0.0,1007.6,29.9,47.14609,9999999.0,47.14609,9999999.0,0.010409494,-0.007504436,0.10815124,-0.5058395,-0.23605798,6.940214,-7.160176,0.12172665,0.48208618
17:36:06.206;0.034232482,-0.07226036,8.065575,0.1303184,-0.3530141,0.05856073,-19.213177,-37.001823,9.26426,220.32452,0.0,0.0,424.07623,0.0,1007.63995,29.9,46.810524,9999999.0,46.810524,9999999.0,0.1144339,-0.2504344,0.11297789,-0.5133007,-0.24316758,7.0749636,-7.5251923,0.11916809,0.47485352
17:36:06.236;0.03504743,-0.073131174,8.069025,0.008248091,-0.5361196,-0.06350958,-19.21614,-37.01666,9.251409,220.33029,0.0,0.0,1711.5474,0.0,1007.57996,29.9,47.312557,9999999.0,47.312557,9999999.0,-0.25556847,-0.27119604,0.12182173,-0.5192639,-0.24884973,7.075211,-7.541276,0.12092491,0.4690857
17:36:06.285;0.03569939,-0.07382783,8.071785,0.43549418,-0.5361196,-0.12454474,-19.200113,-37.010128,9.259527,220.3457,0.0,0.0,0.0,0.0,1007.6,29.9,47.14609,9999999.0,47.14609,9999999.0,-0.2553403,-0.2810458,0.12540905,-0.5240308,-0.25339198,7.0965505,-7.567546,0.11781295,0.45367432
17:36:06.365;0.036220957,-0.07438516,8.081655,0.43549418,-0.3530141,-0.06350958,-19.22409,-36.986504,9.266022,220.30151,0.0,0.0,0.0,0.0,1007.57996,29.9,47.312557,9999999.0,47.312557,9999999.0,-0.25182897,-0.2796043,0.123093836,-0.5273416,-0.25677985,7.13139,-7.595787,0.10784937,0.49786377
17:36:06.824;0.03663821,-0.06716957,8.074227,0.5575645,-0.29197896,-0.12454474,-19.224873,-36.986004,9.252817,220.30023,0.0,0.0,0.0,0.0,1007.69995,29.9,46.30849,9999999.0,46.30849,9999999.0,-0.03274109,-0.1686238,0.10204698,-0.4766282,-0.2599788,7.3873124,-7.7298055,0.07869847,0.4991455
17:36:06.918;0.036972016,-0.07671999,8.060624,0.19135356,-0.29197896,-0.0024744272,-19.243898,-36.985603,9.242253,220.27678,0.0,0.0,0.0,0.0,1007.6,29.9,47.14609,9999999.0,47.14609,9999999.0,-0.15890512,-0.1873076,0.09922905,-0.5453117,-0.2627873,7.404917,-7.7566676,0.06724036,0.52259827
17:36:06.994;0.03723906,-0.06903744,8.080387,0.25238872,-0.29197896,-0.0024744272,-19.240719,-36.985283,9.233803,220.28046,0.0,0.0,0.0,0.0,1007.66,29.9,46.644062,9999999.0,46.644062,9999999.0,-0.174059,-0.1981775,0.10743373,-0.48950818,-0.26404032,7.424603,-7.779442,0.06704735,0.5189209
17:36:07.225;0.037452694,-0.062891394,8.073214,0.1303184,-0.41404927,-0.06350958,-19.256575,-36.966625,9.227042,220.24928,0.0,0.0,0.0,0.0,1007.72,29.9,46.14203,9999999.0,46.14203,9999999.0,-0.17389444,-0.26865333,0.11573163,-0.4463278,-0.26579264,7.454446,-7.874259,0.0664807,0.5500946
17:36:07.302;0.0376236,-0.057974562,8.075136,0.43549418,-0.16990864,0.05856073,-19.25086,-36.9517,9.221634,220.24677,0.0,0.0,0.0,0.0,1007.63995,29.9,46.810524,9999999.0,46.810524,9999999.0,-0.23779105,-0.2515284,0.11955232,-0.4113373,-0.26694316,7.48885,-7.887682,0.061463445,0.5526123
17:36:07.939;0.037760325,-0.06936399,8.061351,0.37445903,-0.3530141,-0.06350958,-19.264688,-36.95816,9.235707,220.23401,0.0,0.0,0.0,0.0,1007.63995,29.9,46.810524,9999999.0,46.810524,9999999.0,-0.022597723,-0.24788575,0.16502576,-0.49298465,-0.26836833,7.7273808,-8.112552,0.09876663,0.56536865
17:36:07.956;0.037869707,-0.07081408,8.065645,0.43549418,-0.41404927,0.18063104,-19.25735,-36.96333,9.246966,220.24625,0.0,0.0,0.0,0.0,1007.56,29.9,47.47902,9999999.0,47.47902,9999999.0,-0.24573313,-0.25309658,0.17172977,-0.50302225,-0.26900202,7.734784,-8.119591,0.09768697,0.5531311
17:36:08.008;0.03795721,-0.07197416,8.076742,0.19135356,-0.3530141,0.05856073,-19.26988,-36.967464,9.255973,220.2336,0.0,0.0,0.0,0.0,1007.63995,29.9,46.810524,9999999.0,46.810524,9999999.0,-0.24849446,-0.2668992,0.18881574,-0.5105599,-0.2692528,7.7447343,-8.137947,0.10707978,0.56578064
17:36:08.055;0.038027212,-0.06524077,8.070297,0.06928325,-0.3530141,-0.1855799,-19.279905,-36.97077,9.281578,220.22348,0.0,0.0,0.0,0.0,1007.51996,29.9,47.81459,9999999.0,47.81459,9999999.0,-0.26770127,-0.28366044,0.19919728,-0.4631673,-0.2699667,7.7479215,-8.154185,0.109773576,0.5758972
17:36:09.518;0.015098879,-0.021546833,8.072803,-0.2969277,-2.2451038,-0.36868536,-19.177525,-37.06542,9.246862,220.4082,0.0,0.0,0.0,0.0,1007.57996,29.9,47.312557,9999999.0,47.312557,9999999.0,-0.70705384,-3.9161515,-0.063218385,-0.15292552,-0.107162036,7.3132195,-11.441017,-0.16191539,0.39117432
17:36:09.613;0.4794273,0.30454323,8.128437,-1.2734902,-3.0385609,-1.1011072,-19.13242,-37.141136,9.20069,220.51085,2243.1584,2485.0896,2569.373,2773.156,1007.51996,29.9,47.81459,9999999.0,47.81459,9999999.0,-3.9135518,-4.185633,-0.09050806,2.1419437,-3.3731186,7.192238,-11.72968,-0.1969405,0.28852844
17:36:09.652;0.62104666,0.22831169,8.172945,1.2899864,1.1728648,-0.42972052,-19.077936,-37.16491,9.145352,220.59221,2901.9153,3168.5676,3071.2532,3161.889,1007.57996,29.9,47.312557,9999999.0,47.312557,9999999.0,-4.020706,-3.9823403,-0.12663884,1.5955472,-4.343759,7.2425475,-11.683938,-0.23988368,0.20716858
17:36:09.729;0.8645867,0.3435397,8.36178,0.92377543,0.7456187,-1.1621424,-19.07115,-37.165527,9.119482,220.60088,2960.3315,3188.7756,3112.0332,3208.5562,1007.57996,29.9,47.312557,9999999.0,47.312557,9999999.0,-3.7870872,-3.773778,-0.15214163,2.3401842,-5.898319,7.3127546,-11.627271,-0.27254245,0.19850159
17:36:10.097;1.5420898,-0.21550077,8.643093,-0.7241738,-0.71922505,0.3637365,-19.06572,-37.166023,9.098785,220.60782,2995.8057,3232.062,3147.2932,3243.2432,1007.6,29.9,47.14609,9999999.0,47.14609,9999999.0,-3.9882998,-4.370882,-0.5655216,-1.406081,-10.113115,7.0455346,-11.892665,-0.701373,0.19155884
17:36:10.318;1.287302,-0.049817488,8.653623,-1.0903847,-0.2309438,1.2792639,-19.079775,-37.24002,9.063828,220.63693,3027.2454,3250.2708,3165.2249,3253.7961,1007.69995,29.9,46.30849,9999999.0,46.30849,9999999.0,-4.526145,-4.654861,-0.4721842,-0.3262488,-8.461061,6.8045597,-11.943704,-0.62098724,0.16244507
17:36:12.296;0.76935244,-0.23905157,8.003162,-3.1045449,-2.733385,1.0351232,-19.10942,-37.24402,9.054263,220.60333,4034.4272,4174.7847,4221.7847,4208.7544,1007.63995,29.9,46.810524,9999999.0,46.810524,9999999.0,-10.610756,-15.804137,2.019703,-1.7030492,-5.488598,0.6668744,-17.347607,1.9081175,0.19604492
17:36:12.506;0.6614506,0.061586455,7.796913,0.61859965,0.1963023,-0.8569666,-19.114737,-37.210415,9.046611,220.57584,4331.5044,5510.654,4508.566,4585.754,1007.56,29.9,47.47902,9999999.0,47.47902,9999999.0,-15.351122,-15.100487,2.1978226,0.45094022,-4.8489227,0.7973989,-17.306187,2.1265285,0.22354126
17:36:12.527;0.88158697,0.018623382,7.5552993,2.9379356,0.3183726,0.30270135,-19.11899,-37.183533,9.040489,220.55382,5261.312,5526.8975,5530.9736,5615.874,1007.6,29.9,47.14609,9999999.0,47.14609,9999999.0,-14.7352085,-14.56706,2.141141,0.1402788,-6.655418,0.8590956,-17.299501,2.1085322,0.24555969
17:36:13.567;-0.19111961,-0.25325188,7.4003153,-5.118705,6.4829235,3.7206702,-19.103992,-37.235626,8.998792,220.60469,5285.412,5541.19,5547.3374,5624.297,1007.6,29.9,47.14609,9999999.0,47.14609,9999999.0,-19.526875,-12.505724,2.4104288,-1.9593452,1.4785196,-4.459239,-10.563744,2.423039,0.19468689
17:36:13.619;-0.06861979,-0.37881476,8.050134,4.52485,-0.9633657,-0.06350958,-19.128794,-37.2773,8.965433,220.60052,7492.507,7841.087,7869.885,8147.7456,1007.5,29.9,47.981052,9999999.0,47.981052,9999999.0,-12.074471,-11.873262,2.559449,-2.6940796,0.48784077,-4.219422,-10.614802,2.6202345,0.19885254
17:36:13.673;0.3664837,0.05703616,7.903443,-2.738334,-0.7802602,-0.9180018,-19.111835,-37.310642,8.938746,220.64195,7618.0796,7894.737,7915.567,8273.58,1007.56,29.9,47.47902,9999999.0,47.47902,9999999.0,-11.769766,-11.627995,2.5081098,0.413031,-2.6548421,-4.3645535,-10.656157,2.6168685,0.15742493
17:36:13.737;0.61496764,0.28313375,8.253439,3.3651817,0.56251323,3.7817054,-19.098269,-37.318913,8.9173975,220.6636,7688.365,7949.1255,8021.39,8379.889,1007.6,29.9,47.14609,9999999.0,47.14609,9999999.0,-11.145184,-10.972175,2.403086,1.9593308,-4.258765,-4.149182,-10.620155,2.5581164,0.1357727
17:36:14.120;-0.1822331,0.49465758,8.303592,4.4027796,6.9101696,5.124479,-19.105814,-37.34393,8.900318,220.67001,7767.996,8051.5303,8081.8965,8474.576,1007.57996,29.9,47.312557,9999999.0,47.312557,9999999.0,-9.027711,-6.2216215,3.7807431,3.4083488,1.2550043,-2.4585145,-7.96665,4.010291,0.12936401
17:36:14.139;1.286904,0.31145015,7.8457203,2.9379356,2.8818493,-0.67386115,-19.09345,-37.363945,8.886655,220.69748,7792.208,8264.463,8356.545,8715.863,1007.56,29.9,47.47902,9999999.0,47.47902,9999999.0,-5.997618,-6.010163,3.8025842,2.2433205,-9.30786,-2.4026937,-7.911895,4.107656,0.10189819
17:36:15.438;1.2133979,0.9540131,7.7092667,-1.8228066,-7.005846,-1.2842127,-19.08356,-37.379955,8.875724,220.71945,7991.476,8301.052,8375.209,8766.804,1007.66,29.9,46.644062,9999999.0,46.644062,9999999.0,-8.071039,-17.005764,2.8702924,6.969484,-8.878043,-4.7705193,-17.01249,3.2323103,0.07992554
17:36:15.914;0.7868436,0.3571539,8.251327,5.8676233,-2.5502796,0.18063104,-19.07565,-37.374363,8.866979,220.7256,8165.487,8479.367,8527.572,8976.66,1007.66,29.9,46.644062,9999999.0,46.644062,9999999.0,-13.879174,-14.900088,2.2153027,2.4672887,-5.4421687,-1.9775305,-18.226423,2.621025,0.073776245
17:36:17.126;0.7060893,0.040556848,8.753927,-0.052787066,-2.2451038,1.0351232,-19.087719,-37.35149,8.878383,220.69672,8147.7456,8479.367,8551.882,8880.995,1007.66,29.9,46.644062,9999999.0,46.644062,9999999.0,-14.659493,-17.125177,2.3875961,0.26458952,-4.6114287,-2.0415084,-20.947489,2.8399498,0.10266113
17:36:17.243;0.35801244,0.40019488,7.9914684,-1.5176308,-7.6772327,-2.0166345,-19.097376,-37.36999,8.8875065,220.69647,8152.174,8479.367,8223.684,8715.863,1007.56,29.9,47.47902,9999999.0,47.47902,9999999.0,-16.899406,-17.492926,2.4605896,2.863982,-2.5618913,-2.2190711,-21.845724,2.9610593,0.10290527
17:36:17.499;0.33237863,0.09031254,8.048047,-1.9448769,-6.8837757,-4.4580407,-19.1051,-37.384792,8.894805,220.69626,8165.487,8488.965,7407.407,7763.975,1007.66,29.9,46.644062,9999999.0,46.644062,9999999.0,-17.616243,-19.031471,1.9094833,0.6423799,-2.3647823,-2.7150147,-23.601088,2.4468176,0.1031189
17:36:17.553;0.12033543,-0.51768124,7.495717,2.4496543,2.4546032,3.4154944,-19.09288,-37.396633,8.900644,220.71848,8178.844,8493.771,7374.632,7708.1196,1007.66,29.9,46.644062,9999999.0,46.644062,9999999.0,-18.600212,-18.116661,1.6369922,-3.950272,-0.9175559,-2.5827334,-23.468538,2.2060835,0.0809021
17:36:20.655;-0.6928606,0.24473935,7.590154,-1.5176308,-2.3671741,-1.406283,-19.101503,-37.36931,8.886915,220.69102,8178.844,8493.771,7338.552,7684.427,1007.56,29.9,47.47902,9999999.0,47.47902,9999999.0,-22.332571,-28.980093,11.992733,1.8391819,5.2130456,-7.2919416,-30.813879,12.804362,0.10835266
17:36:20.700;-0.6998559,-0.32518685,8.087084,-9.452201,2.027357,2.5610023,-19.071602,-37.310646,8.894332,220.69092,8178.844,8493.771,7295.7197,7560.484,1007.5,29.9,47.981052,9999999.0,47.981052,9999999.0,-28.853952,-28.090614,11.694409,-2.2940946,4.9420776,-7.7078385,-30.724676,12.742486,0.10845947
17:36:20.730;-0.32237992,-0.68152905,8.170508,-0.78520894,9.900892,2.1337562,-19.066082,-37.318916,8.863465,220.70279,8156.607,8498.583,7299.2695,7618.0796,1007.54,29.9,47.648125,9999999.0,47.648125,9999999.0,-27.647947,-26.749166,11.540257,-4.7645016,2.2517087,-7.73218,-30.41775,12.8218775,0.096588135
17:36:20.764;-0.6409762,-0.1008594,7.9461126,1.7172325,1.2949351,2.6220374,-19.061666,-37.325535,8.838773,220.71228,8174.3867,8498.583,7302.8237,7598.7847,1007.5,29.9,47.981052,9999999.0,47.981052,9999999.0,-26.171463,-25.51266,11.382292,-0.7248577,4.61143,-7.6737943,-30.373722,12.894425,0.08709717
17:36:20.795;0.4065925,-0.073026076,7.988778,4.3417444,3.7363415,2.1337562,-19.039734,-37.312428,8.819018,220.73083,8147.7456,8498.583,7302.8237,7641.365,1007.56,29.9,47.47902,9999999.0,47.47902,9999999.0,-24.880966,-24.328108,11.235675,-0.5230539,-2.9134593,-7.5392003,-30.257896,12.975709,0.06854248
17:36:20.833;0.9458511,-0.801581,7.9922647,3.4262168,4.1635876,2.9272132,-19.022186,-37.30194,8.803215,220.7457,8174.3867,8498.583,7306.381,7598.7847,1007.56,29.9,47.47902,9999999.0,47.47902,9999999.0,-23.83107,-23.337797,11.089405,-5.6878753,-6.7159395,-7.4124303,-30.103844,13.054658,0.05368042
17:36:21.796;0.61877483,-1.5070082,8.1712675,-1.0293496,5.567396,3.5375648,-19.026548,-37.348755,8.827372,220.76947,8152.174,8498.583,7306.381,7606.491,1007.56,29.9,47.47902,9999999.0,47.47902,9999999.0,-24.051895,-18.396406,13.633612,-10.420332,-4.258943,-8.404723,-24.736874,15.876492,0.029907227
17:36:21.969;0.72486323,-0.32454038,7.6172776,7.332467,-1.5126821,-1.772494,-19.048439,-37.367805,8.828298,220.75464,8134.4907,8493.771,8246.289,8586.147,1007.57996,29.9,47.312557,9999999.0,47.312557,9999999.0,-16.841091,-16.867867,13.958126,-2.4286997,-5.431023,-7.143539,-24.997055,16.484953,0.04473877
17:36:22.771;1.5145869,-0.3975383,7.9861994,1.5951622,-9.325182,-1.5893885,-19.029152,-37.364643,8.829038,220.77615,8156.607,8488.965,8296.46,8610.792,1007.66,29.9,46.644062,9999999.0,46.644062,9999999.0,-15.339026,-22.539425,12.293267,-2.7999,-10.725669,-5.8705997,-32.43855,15.070503,0.023223877
17:36:23.068;1.633049,0.43279105,7.7986655,9.895944,0.1963023,-1.8945643,-19.050522,-37.398914,8.82963,220.7714,8138.9043,8493.771,8398.656,8886.256,1007.66,29.9,46.644062,9999999.0,46.644062,9999999.0,-19.184935,-18.981056,11.591585,3.109104,-11.80925,-2.9710882,-32.38103,14.604813,0.02798462
17:36:23.316;2.0725837,1.1277003,7.6026697,2.3886192,-4.0151234,-0.9790369,-19.030817,-37.407932,8.830104,220.80093,8161.0444,8484.163,8513.053,8939.214,1007.6,29.9,47.14609,9999999.0,47.14609,9999999.0,-17.836956,-18.793297,10.882557,8.144137,-15.0915365,-2.357213,-33.412918,14.117909,-0.0015563965
17:36:23.403;1.4971766,0.97111326,7.6833777,6.172799,8.375013,-0.9180018,-19.051853,-37.378345,8.848883,220.75702,8161.0444,8488.965,8527.572,8965.93,1007.6,29.9,47.14609,9999999.0,47.14609,9999999.0,-17.7497,-16.899483,10.58228,7.071876,-10.941513,-1.8201795,-32.68429,14.032733,0.0423584
17:36:23.429;1.6421051,0.43978703,7.4874554,7.0272913,-5.846178,-1.0400721,-19.068682,-37.354675,8.863906,220.72185,7903.0557,8328.706,8547.009,8949.881,1007.63995,29.9,46.810524,9999999.0,46.810524,9999999.0,-16.316767,-16.38638,10.348795,3.2836275,-12.349303,-1.6374699,-32.836292,14.008865,0.07752991
17:36:23.528;1.2906997,0.24456938,7.3153944,-1.3345253,0.92872417,-3.0542321,-19.063745,-37.33574,8.894325,220.7161,7861.6353,8310.249,8547.009,8928.571,1007.63995,29.9,46.810524,9999999.0,46.810524,9999999.0,-16.150414,-15.937312,10.042578,1.8857038,-10.000589,-1.7695879,-32.74435,13.905898,0.08328247
17:36:23.657;1.0248983,1.0384146,7.5684795,4.52485,-1.7568227,-0.9790369,-19.041397,-37.35739,8.90026,220.75674,7788.162,8241.759,8551.882,8965.93,1007.57996,29.9,47.312557,9999999.0,47.312557,9999999.0,-14.891684,-14.968771,9.456463,7.74255,-7.641165,-1.1858823,-32.97098,13.511902,0.042633057
17:36:23.708;0.6053981,0.3020919,8.008452,-1.8228066,4.773939,-1.2842127,-19.005117,-37.374714,8.905008,220.81166,7537.6885,8012.821,8537.279,8960.574,1007.6,29.9,47.14609,9999999.0,47.14609,9999999.0,-14.717418,-14.270868,9.218156,2.1541257,-4.3199854,-1.2788454,-32.727512,13.461971,-0.012283325
17:36:23.758;0.57625586,-0.5704397,8.09228,-5.0576696,-4.56444,2.1337562,-18.976093,-37.388573,8.908807,220.85559,7499.9995,7961.7837,8561.644,8939.214,1007.69995,29.9,46.30849,9999999.0,46.30849,9999999.0,-14.313719,-14.332365,8.969742,-4.0220633,-4.0631404,-1.531729,-32.955734,13.39776,-0.05621338
17:36:23.785;0.86706126,-0.15755537,8.121035,-0.6631386,6.4218884,2.6830726,-19.008074,-37.39966,8.930245,220.8235,7462.6865,7903.0557,8561.644,8939.214,1007.66,29.9,46.644062,9999999.0,46.644062,9999999.0,-14.085367,-13.755598,8.846324,-1.1051705,-6.0930934,-1.5496337,-32.782345,13.455372,-0.024124146
17:36:23.826;1.8045585,0.19573641,7.8299193,0.61859965,-3.099596,0.85201776,-19.033659,-37.408527,8.947396,220.79785,7414.7305,7857.517,8566.533,8971.292,1007.66,29.9,46.644062,9999999.0,46.644062,9999999.0,-13.428328,-13.540753,8.774605,1.3954456,-12.9744005,-1.5248897,-32.90633,13.562695,0.0015258789
17:36:23.863;1.3976781,0.17191201,8.401479,-0.6021035,6.360853,2.3778968,-19.017326,-37.39722,8.942717,220.81073,7381.889,7804.3706,8576.329,8902.077,1007.57996,29.9,47.312557,9999999.0,47.312557,9999999.0,-13.268644,-12.9614935,8.62978,1.1563413,-9.443338,-1.5471675,-32.67098,13.594219,-0.011352539
17:36:23.892;0.18344605,0.014946476,8.29944,2.9379356,-9.813463,0.05856073,-19.004261,-37.388176,8.938973,220.82104,7360.157,7751.9385,8566.533,8971.292,1007.6,29.9,47.14609,9999999.0,47.14609,9999999.0,-12.613826,-12.67539,8.526662,0.10315876,-1.2662246,-1.4590294,-32.96538,13.665556,-0.02166748
17:36:23.917;-0.24397686,-0.24853198,7.9190135,-0.8462441,2.6987438,0.546842,-18.975409,-37.36254,8.935979,220.84033,7331.378,7704.1597,8561.644,8971.292,1007.57996,29.9,47.312557,9999999.0,47.312557,9999999.0,-12.47855,-12.1275835,8.356744,-1.7967408,1.7637994,-1.4801855,-32.897915,13.66702,-0.04095459
17:36:23.958;0.16490647,-0.068581,8.020729,-1.3345253,-2.2451038,1.8896154,-18.952328,-37.342033,8.933583,220.85577,7306.381,7692.3086,8566.533,8955.225,1007.66,29.9,46.644062,9999999.0,46.644062,9999999.0,-11.948449,-11.823245,8.210453,-0.48979038,-1.1777942,-1.534901,-32.989964,13.689441,-0.056396484
17:36:23.992;0.032326385,0.5733738,7.5351543,3.914498,-5.2358265,-2.626986,-18.970663,-37.34403,8.931666,220.83466,7285.0894,7664.793,8581.236,8971.292,1007.6,29.9,47.14609,9999999.0,47.14609,9999999.0,-11.369322,-11.321296,8.1085005,4.3513923,-0.24509321,-1.401808,-33.16798,13.753688,-0.03527832
17:36:24.026;0.4089334,0.19820988,7.7979174,4.4638147,-2.0619984,2.1947913,-18.98533,-37.345623,8.930133,220.81775,7270.9644,7637.474,8566.533,8939.214,1007.57996,29.9,47.312557,9999999.0,47.312557,9999999.0,-10.917054,-10.827438,7.858432,1.4540513,-3.0009513,-1.2500383,-33.238087,13.664371,-0.018371582
17:36:24.061;-0.4543208,-0.40837908,7.992805,3.6093223,-1.3906118,1.5844396,-18.960264,-37.2917,8.892106,220.81488,7249.8794,7591.0938,8566.533,8976.66,1007.6,29.9,47.14609,9999999.0,47.14609,9999999.0,-10.545494,-10.317302,7.7762346,-2.9201837,3.2490323,-1.123712,-33.28676,13.741188,-0.01550293
17:36:24.096;-0.63160723,-0.7021141,8.248314,2.327584,12.83058,3.8427405,-18.97701,-37.28536,8.880085,220.7905,7239.3823,7583.418,8561.644,8949.881,1007.63995,29.9,46.810524,9999999.0,46.810524,9999999.0,-10.128145,-9.3982315,7.6752334,-4.8512764,4.3631105,-1.0422465,-32.83769,13.796643,0.008880615
17:36:24.156;0.19956714,-0.056035876,8.054326,3.853463,-7.311022,0.30270135,-18.990408,-37.28029,8.870468,220.771,7228.9155,7579.586,8576.329,8976.66,1007.72,29.9,46.14203,9999999.0,46.14203,9999999.0,-8.991653,-9.270095,7.7482495,-0.39849174,-1.419329,-0.8110387,-33.27635,14.027207,0.028381348
17:36:24.194;-0.07785109,0.42251953,7.6233234,0.8017051,-9.874498,-0.55179083,-19.001127,-37.23943,8.881174,220.7325,7208.073,7564.2964,8566.533,8976.66,1007.56,29.9,47.47902,9999999.0,47.47902,9999999.0,-8.991394,-9.167608,7.605895,3.172184,0.58420044,-0.7805739,-33.65158,14.03871,0.06687927
17:36:24.234;-0.42236882,-0.04505664,7.7458696,-7.987357,3.0649548,-0.0024744272,-19.009703,-37.206745,8.889739,220.70166,7187.35,7545.2715,8566.533,8976.66,1007.57996,29.9,47.312557,9999999.0,47.312557,9999999.0,-9.296189,-8.930701,7.434643,-0.33278343,3.1210957,-1.0920808,-33.532047,14.01719,0.097717285
17:36:24.282;-0.09272882,0.07887637,8.265286,-0.052787066,-7.6161976,-4.3970056,-18.998161,-37.254196,8.896591,220.74532,7136.061,7518.797,8561.644,8976.66,1007.6,29.9,47.14609,9999999.0,47.14609,9999999.0,-8.743688,-8.921689,7.286913,0.5467278,0.64274913,-1.0946674,-33.90524,14.017069,0.05406189
17:36:24.327;0.78389883,0.27762157,7.661847,-4.6304235,7.5815563,1.5844396,-19.025728,-37.273758,8.902073,220.72386,7125.8906,7499.9995,8566.533,8907.363,1007.56,29.9,47.47902,9999999.0,47.47902,9999999.0,-8.90617,-8.510458,6.9487767,2.0643966,-5.837914,-1.3030365,-33.564068,13.819203,0.07551575
17:36:24.377;0.25936967,0.35234183,8.113792,5.379342,3.6142712,2.0116858,-19.029383,-37.326206,8.888059,220.75201,7105.637,7496.2515,8571.429,8982.035,1007.6,29.9,47.14609,9999999.0,47.14609,9999999.0,-8.0269575,-7.725903,6.8883867,2.485242,-1.8292003,-1.0340693,-33.383354,13.898425,0.04736328
17:36:24.410;-0.48203433,0.2895349,8.06163,1.167916,3.3701305,-1.2842127,-19.032307,-37.368164,8.876847,220.77449,7088.8467,7485.0303,8566.533,8976.66,1007.6,29.9,47.14609,9999999.0,47.14609,9999999.0,-7.49255,-7.1653166,6.816175,2.05324,3.4196503,-0.99552804,-33.27214,13.96481,0.024887085
17:36:24.442;-0.5082106,-0.25870457,8.203775,3.1820762,-5.418932,2.6220374,-19.053045,-37.38333,8.886278,220.75867,7062.147,7462.6865,8566.533,8976.66,1007.63995,29.9,46.810524,9999999.0,46.810524,9999999.0,-6.9582753,-6.9181857,6.6403933,-1.8027599,3.543094,-0.8937016,-33.445545,13.923716,0.04071045
17:36:24.471;-0.18438658,0.22207731,8.463058,-4.6914587,-1.0244008,2.5610023,-19.069635,-37.395466,8.893823,220.746,7062.147,7455.2686,8576.329,8955.225,1007.66,29.9,46.644062,9999999.0,46.644062,9999999.0,-6.8785005,-6.7440863,6.580602,1.5027848,1.2476894,-1.0250624,-33.474228,13.997132,0.053375244
17:36:24.507;0.45008346,0.37685943,8.287413,5.6234827,2.759779,2.6220374,-19.046108,-37.368374,8.863058,220.75781,7045.5615,7447.8647,8561.644,8965.93,1007.6,29.9,47.14609,9999999.0,47.14609,9999999.0,-6.3533006,-6.1882734,6.542683,2.599832,-3.105436,-0.8169936,-33.372116,14.091889,0.04156494
17:36:24.547;0.55926436,-0.027954638,8.552953,-5.118705,7.2153454,2.1337562,-19.027287,-37.3467,8.838447,220.76729,7025.761,7440.476,8576.329,8971.292,1007.6,29.9,47.14609,9999999.0,47.14609,9999999.0,-6.2688985,-5.9355016,6.515255,-0.18686692,-3.7411366,-1.0217417,-33.083504,14.196771,0.032089233
17:36:24.608;0.301844,-0.030025156,8.558526,0.19135356,-5.1747913,2.1337562,-19.03063,-37.32936,8.837157,220.75246,7015.9023,7433.102,8566.533,8912.656,1007.66,29.9,46.644062,9999999.0,46.644062,9999999.0,-5.809558,-6.0380416,6.5113535,-0.20088024,-2.0198708,-1.0102606,-33.39399,14.324796,0.046920776
17:36:24.627;0.07292339,0.06025578,8.363787,-0.23589253,6.4218884,0.119595885,-19.033304,-37.31549,8.836125,220.74057,7012.6226,7418.3975,8566.533,8928.571,1007.69995,29.9,46.30849,9999999.0,46.30849,9999999.0,-5.9136496,-5.679498,6.4241242,0.41275695,-0.4995331,-1.0149784,-33.265553,14.367471,0.058807373
17:36:24.644;0.29584354,0.14780343,7.955168,7.759713,4.9570446,0.3637365,-19.017044,-37.304394,8.8353,220.75351,7009.346,7414.7305,8566.533,8971.292,1007.6,29.9,47.14609,9999999.0,47.14609,9999999.0,-5.415358,-5.2670546,6.298552,1.0636722,-2.1294155,-0.88306326,-33.181282,14.369504,0.04586792
17:36:24.781;0.7653146,0.66220534,7.7431946,2.6327598,3.2480602,-2.5049157,-19.004036,-37.295517,8.8346405,220.76385,6996.2686,7411.067,8561.644,8976.66,1007.6,29.9,47.14609,9999999.0,47.14609,9999999.0,-4.710949,-4.29313,6.222127,4.8645077,-5.624216,-0.52237517,-32.736298,14.419336,0.03552246
17:36:24.826;0.79612637,0.9741281,7.0219917,1.7782676,-4.68651,-2.5659509,-18.99363,-37.306812,8.834112,220.78355,6979.9907,7400.0986,8556.76,8944.544,1007.56,29.9,47.47902,9999999.0,47.47902,9999999.0,-3.97188,-4.2272677,5.987534,7.8483205,-6.4075103,-0.44235313,-32.94719,14.306615,0.015823364
17:36:24.869;0.2385059,0.7793025,7.571262,2.693795,-11.644518,1.0351232,-18.985304,-37.31585,8.83369,220.79932,6973.5005,7392.804,8566.533,8965.93,1007.57996,29.9,47.312557,9999999.0,47.312557,9999999.0,-3.9117298,-4.3600917,5.759656,5.8738093,-1.7948285,-0.32651994,-33.447903,14.196279,6.1035156E-5
17:36:24.897;-0.5676784,0.14077085,8.28649,1.8393028,-2.67235,-0.12454474,-18.997044,-37.30468,8.833352,220.77808,6963.788,7389.162,8561.644,8907.363,1007.66,29.9,46.644062,9999999.0,46.644062,9999999.0,-4.2030005,-4.113901,5.6732926,0.9709714,3.918446,-0.27501947,-33.522728,14.225262,0.02130127
17:36:24.931;-0.10937765,-0.8220797,7.8550234,-7.7432165,3.0649548,-0.24661505,-19.006435,-37.295746,8.833081,220.76106,6954.103,7381.889,8566.533,8928.571,1007.63995,29.9,46.810524,9999999.0,46.810524,9999999.0,-4.409108,-4.2029333,5.5564437,-5.9740543,0.7934334,-0.53828883,-33.418518,14.221027,0.03831482
17:36:24.977;-0.102825016,0.047189176,8.230026,4.891061,-5.907213,-3.9087243,-18.977148,-37.306995,8.851265,220.80377,6941.2314,7378.2593,8566.533,8939.214,1007.63995,29.9,46.810524,9999999.0,46.810524,9999999.0,-3.891816,-4.0659604,5.4341097,0.32849228,0.71579796,-0.3133,-33.69025,14.209683,-0.0043945313
17:36:25.015;-0.028629892,0.9111561,7.8941283,6.53901,-0.7802602,1.7675451,-18.953718,-37.315998,8.865812,220.83795,6941.2314,7378.2593,8566.533,8976.66,1007.6,29.9,47.14609,9999999.0,47.14609,9999999.0,-3.6094482,-3.562188,5.1790953,6.584016,0.20642509,-0.06481764,-33.719902,14.0611515,-0.03857422
17:36:25.057;0.2529081,0.6829562,7.916545,-0.23589253,1.7832164,-0.612826,-18.971775,-37.3048,8.85905,220.80896,6938.0205,7371.008,8566.533,8976.66,1007.66,29.9,46.644062,9999999.0,46.644062,9999999.0,-3.4020903,-3.2971117,5.1480737,4.9281673,-1.8230265,-0.07472512,-33.645008,14.135388,-0.0095825195
17:36:25.097;0.09506625,0.27821437,7.880848,2.9989707,0.13526714,-0.1855799,-18.94942,-37.295837,8.85364,220.83069,6931.608,7371.008,8561.644,8971.292,1007.57996,29.9,47.312557,9999999.0,47.312557,9999999.0,-3.0731757,-3.0202234,5.0204635,2.021703,-0.6906922,0.045233704,-33.6396,14.110875,-0.031311035
17:36:25.146;0.75792164,-0.28308395,7.6914,1.7172325,-0.29197896,-2.0776696,-18.931538,-37.28867,8.849312,220.84808,6931.608,7367.387,8566.533,8976.66,1007.66,29.9,46.644062,9999999.0,46.644062,9999999.0,-2.919311,-2.987427,4.9101686,-2.0976834,-5.624056,0.1293781,-33.653904,14.101782,-0.048706055
17:36:25.179;0.7748891,0.28684965,7.654763,-8.719779,2.6987438,0.3637365,-18.93563,-37.282936,8.82745,220.83954,6925.2075,7363.7705,8561.644,8917.955,1007.72,29.9,46.14203,9999999.0,46.14203,9999999.0,-3.1669729,-3.1318822,4.743971,2.135159,-5.7763147,-0.15837462,-33.564846,14.033218,-0.040161133
17:36:25.232;0.5509583,-0.015686542,8.008526,-1.3955605,2.332533,2.8051429,-18.902105,-37.27835,8.84676,220.87766,6902.899,7360.157,8566.533,8923.26,1007.69995,29.9,46.30849,9999999.0,46.30849,9999999.0,-3.143969,-3.0386486,4.6664186,-0.11196219,-3.9355385,-0.23233932,-33.441223,14.052496,-0.07827759
17:36:25.251;-0.14150321,-0.8093395,8.031047,3.487252,-4.625475,-2.9321618,-18.875284,-37.27468,8.862207,220.90819,6902.899,7356.5474,8561.644,8976.66,1007.57996,29.9,47.312557,9999999.0,47.312557,9999999.0,-3.031435,-3.032313,4.620397,-5.753743,1.0043339,-0.16956879,-33.524483,14.102988,-0.108810425
17:36:25.283;0.047687784,-0.877315,8.332538,-6.034232,0.9897593,2.1337562,-18.853828,-37.271744,8.874566,220.93262,6902.899,7352.9414,8566.533,8976.66,1007.63995,29.9,46.810524,9999999.0,46.810524,9999999.0,-3.28702,-3.1957927,4.4304986,-6.010308,-0.3261023,-0.36869845,-33.49182,14.006227,-0.13323975
17:36:25.313;0.63574296,-0.7171749,8.328564,0.43549418,-2.2451038,2.0116858,-18.836662,-37.287796,8.902853,220.96356,6887.0522,7349.339,8561.644,8971.292,1007.66,29.9,46.644062,9999999.0,46.644062,9999999.0,-3.2172215,-3.305864,4.4013376,-4.907408,-4.349053,-0.35563362,-33.559174,14.070239,-0.16418457
17:36:25.385;1.2594161,0.03917575,8.003604,2.9989707,2.759779,1.0961584,-18.84133,-37.300636,8.907083,220.96579,6890.216,7349.339,8561.644,8944.544,1007.6,29.9,47.14609,9999999.0,47.14609,9999999.0,-3.0255377,-2.9518497,4.449956,0.27703822,-8.9424095,-0.14270669,-33.363228,14.213069,-0.16641235
17:36:25.398;0.23372686,0.16158518,8.249291,2.693795,-2.3671741,-1.8335291,-18.845064,-37.31091,8.910466,220.96758,6896.552,7345.7397,8551.882,8976.66,1007.66,29.9,46.644062,9999999.0,46.644062,9999999.0,-2.83342,-2.8416817,4.372632,1.1217028,-1.6226139,-0.10499357,-33.39637,14.2284155,-0.16819763
17:36:25.427;-0.41061127,-0.16952825,8.269629,1.1068809,-0.3530141,3.5375648,-18.866451,-37.33753,8.931573,220.95787,6896.552,7345.7397,8532.423,8982.035,1007.6,29.9,47.14609,9999999.0,47.14609,9999999.0,-2.7768497,-2.674506,4.229901,-1.1729603,2.8419726,-0.07289402,-33.40661,14.175243,-0.15849304
17:36:25.447;-0.4587336,-1.0243502,8.040731,7.8817835,5.506361,0.3637365,-18.88356,-37.35882,8.948459,220.9501,6893.3823,7342.144,8527.572,8976.66,1007.6,29.9,47.14609,9999999.0,47.14609,9999999.0,-2.6192257,-2.3995302,4.2081575,-7.248436,3.2391324,0.07685986,-33.301987,14.242457,-0.15072632
17:36:25.478;-0.07585195,-0.76585,8.202379,-7.499076,4.0415173,3.5375648,-18.897247,-37.37586,8.961967,220.94391,6874.4272,7342.144,8566.533,8971.292,1007.66,29.9,46.644062,9999999.0,46.644062,9999999.0,-2.6933901,-2.5022297,4.1325107,-5.3339725,0.5275364,-0.16311058,-33.172657,14.254097,-0.14453125
17:36:25.538;0.2840835,-0.34452942,7.9026566,-10.367728,9.0464,2.072721,-18.926598,-37.352688,8.954374,220.89377,6883.891,7342.144,8561.644,8902.077,1007.69995,29.9,46.30849,9999999.0,46.30849,9999999.0,-3.1015415,-2.5575843,4.252515,-2.4947145,-2.0568213,-0.7748065,-32.63892,14.462813,-0.09439087
17:36:25.561;0.196621,-0.29094642,8.045951,-2.6772988,-1.5126821,2.5610023,-18.950079,-37.334152,8.948299,220.85364,6883.891,7338.552,8561.644,8965.93,1007.6,29.9,47.14609,9999999.0,47.14609,9999999.0,-2.6108093,-2.6221507,4.2151294,-2.07033,-1.3989593,-0.8390617,-32.675224,14.512559,-0.054260254
17:36:25.617;-0.8693369,-0.17912701,7.8234825,-6.827689,4.0415173,0.9740881,-18.968863,-37.31932,8.9434395,220.82153,6883.891,7338.552,8566.533,8907.363,1007.72,29.9,46.14203,9999999.0,46.14203,9999999.0,-2.903572,-2.5365295,4.245834,-1.3035985,6.338986,-1.1531354,-32.489315,14.630365,-0.022155762
17:36:25.644;-0.28941292,-0.7102486,7.9672885,5.745553,3.7363415,0.3637365,-18.96549,-37.325855,8.939551,220.8297,6887.0522,7331.378,8576.329,8917.955,1007.66,29.9,46.644062,9999999.0,46.644062,9999999.0,-2.3849132,-2.1602921,4.195631,-5.09086,2.0721526,-0.9462955,-32.35107,14.666407,-0.030319214
17:36:25.699;-0.047655642,-0.24641815,7.7682137,-3.4097207,1.1118296,-1.5893885,-18.981192,-37.349483,8.918041,220.8252,6868.1313,7334.9634,8566.533,8923.26,1007.56,29.9,47.47902,9999999.0,47.47902,9999999.0,-2.3372073,-2.224599,4.130451,-1.8168554,0.35131118,-1.1338301,-32.29103,14.6860485,-0.025817871
17:36:25.748;-0.5054727,-0.5955297,7.8004904,-0.90727925,2.4546032,-0.1855799,-18.993753,-37.368385,8.900833,220.8216,6874.4272,7334.9634,8566.533,8982.035,1007.5,29.9,47.981052,9999999.0,47.981052,9999999.0,-2.3116972,-2.0712504,3.969518,-4.356684,3.6968617,-1.179194,-32.1683,14.606579,-0.022216797
17:36:25.797;-1.0019709,-0.5453768,8.094462,2.3886192,9.16847,2.1947913,-18.985403,-37.40191,8.887067,220.85251,6871.278,7334.9634,8561.644,8949.881,1007.6,29.9,47.14609,9999999.0,47.14609,9999999.0,-1.991633,-1.3707176,3.8801534,-3.8254561,7.0406456,-1.0621517,-31.719046,14.597486,-0.053131104
17:36:25.828;-0.8705297,-0.48993155,8.1381035,0.5575645,-0.59715474,-2.260775,-18.960323,-37.35513,8.894453,220.85413,6883.891,7334.9634,8542.141,8960.574,1007.57996,29.9,47.312557,9999999.0,47.312557,9999999.0,-1.394878,-1.2632275,3.868133,-3.425676,6.094738,-1.0448672,-31.737558,14.6655245,-0.054748535
