22:22:38.829;[m/s²] X,[m/s²] Y,[m/s²] Z,[°/s] X,[°/s] Y,[°/s] Z,[µT] X,[µT] Y,[µT] Z,[µT] Direção,[RPM] 1,[RPM] 2,[RPM] 3,[RPM] 4,[hPa],[°C],[m] Baro ,[cm] Down,[m] Abs,[m] Rel,[°] X,[°] Y,[°] Z,[°] Acce X,[°] Acce Y,[°] Gyro X,[°] Gyro Y,[°] Gyro Z,[°] Mag Z
22:22:38.829;-0.4213795,-0.7278373,8.159439,-0.17485738,0.13526714,-0.24661505,-24.104,-1.288,17.296,-199.71692,0.0,0.0,0.0,0.0,1001.25995,25.7,100.30336,9999999.0,100.30336,99999.99,-0.101812944,-0.15866941,0.0,-5.090652,-2.9446394,0.0,0.0,0.0,0.0
22:22:38.855;-0.4213795,-0.7278373,8.144116,-0.23589253,-0.10887349,-0.1855799,-24.104,-1.288,17.296,-199.71692,0.0,0.0,0.0,0.0,1001.16,25.7,101.1436,9999999.0,101.1436,9999999.0,-0.2639719,-0.3206824,-4.0011015,-5.1001534,-2.9501262,-0.0066049914,-0.0030484577,-0.006905222,-199.71692
22:22:38.880;-0.42904094,-0.7278373,8.13952,-0.11382222,0.07423198,-0.0024744272,-24.0856,-1.2696,17.296,-199.75824,0.0,0.0,0.0,0.0,1001.19995,25.7,100.80804,9999999.0,100.80804,9999999.0,-0.41911256,-0.46901852,-7.926728,-5.102762,-3.005347,-0.009450547,-0.0011926581,-0.011544719,-199.71692
22:22:38.906;-0.42750865,-0.7354988,8.1281805,-0.11382222,0.013196826,-0.0024744272,-24.07088,-1.2548801,17.296,-199.79135,0.0,0.0,0.0,0.0,1001.22,25.7,100.64157,9999999.0,100.64157,9999999.0,-0.56591725,-0.61422,-11.774734,-5.163373,-2.9985182,-0.012523748,-8.363438E-4,-0.011611529,-199.75824
22:22:38.934;-0.41862136,-0.74162793,8.134432,-0.17485738,0.013196826,0.119595885,-24.059105,-1.2431041,17.296,-199.81784,0.0,0.0,0.0,0.0,1001.22,25.7,100.64157,9999999.0,100.64157,9999999.0,-0.71061206,-0.7547278,-15.546507,-5.2024903,-2.9338605,-0.017244898,-4.800295E-4,-0.011678338,-199.79135
22:22:38.960;-0.419173,-0.74653125,8.131772,-0.052787066,0.013196826,-0.06350958,-24.086485,-1.2336832,17.296,-199.84357,0.0,0.0,0.0,0.0,1001.16,25.7,101.1436,9999999.0,101.1436,9999999.0,-0.8457457,-0.88726467,-19.240328,-5.238377,-2.9385107,-0.018617362,-1.3691201E-4,-0.008568845,-199.81784
22:22:38.984;-0.41195285,-0.7427925,8.129644,0.008248091,-0.04783833,-0.06350958,-24.108389,-1.2261466,17.296,-199.86407,0.0,0.0,0.0,0.0,1001.25995,25.7,100.30336,9999999.0,100.30336,9999999.0,-0.97360283,-1.0130329,-22.862282,-5.2138753,-2.8888507,-0.018419407,-0.0012850319,-0.010093074,-199.84357
22:22:39.012;-0.41383818,-0.74746287,8.12028,0.008248091,0.13526714,0.05856073,-24.107512,-1.2385173,17.296,-199.83466,0.0,0.0,0.0,0.0,1001.19995,25.7,100.80804,9999999.0,100.80804,9999999.0,-1.0976104,-1.1303158,-26.413824,-5.2524147,-2.9052105,-0.018204957,0.0022319139,-0.011744323,-199.86407
22:22:39.035;-0.41534644,-0.75886065,8.120451,-0.23589253,0.013196826,-0.06350958,-24.10681,-1.2484138,17.296,-199.81113,0.0,0.0,0.0,0.0,1001.07996,25.7,101.81738,9999999.0,101.81738,9999999.0,-1.2201264,-1.2537073,-29.892311,-5.3318872,-2.9153442,-0.02410227,0.0025618344,-0.010280305,-199.83466
22:22:39.061;-0.4242145,-0.752656,8.105265,0.008248091,0.13526714,0.05856073,-24.106247,-1.2563311,17.296,-199.79227,0.0,0.0,0.0,0.0,1001.19995,25.7,100.80804,9999999.0,100.80804,9999999.0,-1.3343843,-1.3639143,-33.30238,-5.2980695,-2.9832098,-0.02388782,0.00607878,-0.0119315535,-199.81113
22:22:39.092;-0.42364752,-0.7476922,8.1084385,-0.052787066,0.013196826,-0.0024744272,-24.105797,-1.2626649,17.3144,-199.77722,0.0,0.0,0.0,0.0,1001.19995,25.7,100.80804,9999999.0,100.80804,9999999.0,-1.4434656,-1.4737602,-36.64209,-5.261302,-2.9782426,-0.02552422,0.0064878818,-0.010116171,-199.79227
22:22:39.121;-0.42319393,-0.7360598,8.0956545,-0.052787066,0.1963023,-0.12454474,-24.105438,-1.2677319,17.32912,-199.76514,0.0,0.0,0.0,0.0,1001.19995,25.7,100.80804,9999999.0,100.80804,9999999.0,-1.5495455,-1.5725777,-39.914776,-5.188024,-2.980098,-0.027055044,0.012180649,-0.0101879295,-199.77722
22:22:39.148;-0.4304925,-0.74207675,8.093088,-0.17485738,0.013196826,-0.0024744272,-24.08675,-1.2717855,17.322496,-199.7532,0.0,0.0,0.0,0.0,1001.19995,25.7,100.80804,9999999.0,100.80804,9999999.0,-1.6503848,-1.6776707,-43.12506,-5.231598,-3.0321467,-0.031776194,0.012536963,-0.013550637,-199.76514
22:22:39.187;-0.43633133,-0.73156744,8.091036,-0.17485738,0.013196826,-0.12454474,-24.0718,-1.2750283,17.317198,-199.74362,0.0,0.0,0.0,0.0,1001.25995,25.7,100.30336,9999999.0,100.30336,9999999.0,-1.7536377,-1.779573,-46.27099,-5.15901,-3.0743253,-0.038245916,0.013025246,-0.013642191,-199.7532
22:22:39.220;-0.44866386,-0.73082143,8.089394,-0.35796285,0.013196826,-0.06350958,-24.07824,-1.2776227,17.331358,-199.73828,0.0,0.0,0.0,0.0,1001.1,25.7,101.64828,9999999.0,101.64828,9999999.0,-1.8586458,-1.8842802,-49.357838,-5.154389,-3.161706,-0.05005869,0.01346074,-0.017752167,-199.74362
22:22:39.246;-0.443207,-0.7302246,8.095741,0.06928325,0.013196826,-0.12454474,-24.083391,-1.2796981,17.342686,-199.73401,0.0,0.0,0.0,0.0,1001.13995,25.7,101.312706,9999999.0,101.312706,9999999.0,-1.947757,-1.9708841,-52.384457,-5.1463876,-3.1209247,-0.048257325,0.013803858,-0.019403417,-199.73828
22:22:39.276;-0.44650295,-0.7374086,8.093158,-0.052787066,0.13526714,-0.0024744272,-24.105913,-1.2629585,17.33335,-199.77652,0.0,0.0,0.0,0.0,1001.13995,25.7,101.312706,9999999.0,101.312706,9999999.0,-2.0370872,-2.055,-55.354362,-5.1982713,-3.1448305,-0.04994651,0.018132407,-0.023388848,-199.73401
22:22:39.302;-0.43381682,-0.7431558,8.098753,-0.052787066,0.13526714,0.18063104,-24.12393,-1.2495668,17.32588,-199.81049,0.0,0.0,0.0,0.0,1001.01996,25.7,102.32206,9999999.0,102.32206,9999999.0,-2.1199534,-2.1351752,-58.265785,-5.235415,-3.0533648,-0.051318973,0.021649353,-0.023453183,-199.77652
22:22:39.324;-0.43132937,-0.7477535,8.103229,-0.17485738,0.07423198,-0.06350958,-24.138344,-1.2388535,17.319904,-199.83762,0.0,0.0,0.0,0.0,1001.19995,25.7,100.80804,9999999.0,100.80804,9999999.0,-2.2017093,-2.2166834,-61.11559,-5.2648244,-3.0340736,-0.055340692,0.02335669,-0.019298669,-199.81049
22:22:39.351;-0.42167795,-0.7514317,8.099148,-0.11382222,0.13526714,0.119595885,-24.149876,-1.2302828,17.315123,-199.85928,0.0,0.0,0.0,0.0,1001.22,25.7,100.64157,9999999.0,100.64157,9999999.0,-2.281121,-2.2914052,-63.91056,-5.2935476,-2.9676616,-0.05830007,0.026873635,-0.020949919,-199.83762
22:22:39.378;-0.41395682,-0.7467128,8.103544,0.06928325,0.13526714,-0.12454474,-24.159101,-1.2234262,17.311298,-199.87662,0.0,0.0,0.0,0.0,1001.22,25.7,100.64157,9999999.0,100.64157,9999999.0,-2.3489022,-2.3565853,-66.6469,-5.257918,-2.9120076,-0.056429423,0.030525848,-0.01772083,-199.85928
22:22:39.403;-0.4077799,-0.75059915,8.107061,-0.11382222,0.07423198,0.119595885,-24.14808,-1.2179409,17.32664,-199.88828,0.0,0.0,0.0,0.0,1001.16,25.7,101.1436,9999999.0,101.1436,9999999.0,-2.4179034,-2.425072,-69.33191,-5.2830567,-2.8672712,-0.05927498,0.032381646,-0.020834448,-199.87662
22:22:39.430;-0.41816127,-0.7460468,8.109876,-0.11382222,0.07423198,0.05856073,-24.139265,-1.2135527,17.338911,-199.89761,0.0,0.0,0.0,0.0,1001.16,25.7,101.1436,9999999.0,101.1436,9999999.0,-2.4845634,-2.4916937,-71.9603,-5.249048,-2.9392812,-0.06234818,0.03438591,-0.017605359,-199.88828
22:22:39.458;-0.42646638,-0.75006634,8.089143,-0.11382222,-0.04783833,-0.06350958,-24.132212,-1.2100421,17.348728,-199.90509,0.0,0.0,0.0,0.0,1001.16,25.7,101.1436,9999999.0,101.1436,9999999.0,-2.5507889,-2.561186,-74.53469,-5.290302,-3.0050204,-0.0655352,0.033046436,-0.01596566,-199.89761
22:22:39.482;-0.41778755,-0.75328195,8.103202,0.1303184,0.013196826,-0.06350958,-24.12657,-1.2256337,17.338182,-199.8675,0.0,0.0,0.0,0.0,1001.19995,25.7,100.80804,9999999.0,100.80804,9999999.0,-2.6129775,-2.6191838,-77.059235,-5.304006,-2.9388127,-0.06240756,0.03336316,-0.01748989,-199.90509
22:22:39.506;-0.4108445,-0.748193,8.106788,-0.17485738,0.13526714,0.05856073,-24.122055,-1.238107,17.329746,-199.8374,0.0,0.0,0.0,0.0,1001.25995,25.7,100.30336,9999999.0,100.30336,9999999.0,-2.6764097,-2.6773465,-79.534096,-5.2662935,-2.8889582,-0.066778995,0.036744837,-0.019077629,-199.8675
22:22:39.531;-0.4129515,-0.73646045,8.109656,0.06928325,0.1963023,-0.12454474,-24.118444,-1.2480856,17.322996,-199.81332,0.0,0.0,0.0,0.0,1001.19995,25.7,100.80804,9999999.0,100.80804,9999999.0,-2.7258158,-2.7247448,-81.95747,-5.182278,-2.9031126,-0.0651162,0.041456092,-0.017672172,-199.8374
22:22:39.556;-0.40697566,-0.73473585,8.111952,-0.11382222,0.07423198,-0.06350958,-24.097157,-1.2560685,17.299196,-199.79178,0.0,0.0,0.0,0.0,1001.19995,25.7,100.80804,9999999.0,100.80804,9999999.0,-2.776529,-2.7763157,-84.33508,-5.168948,-2.8604248,-0.068075575,0.043386124,-0.020910336,-199.81332
22:22:39.581;-0.40985644,-0.7333561,8.113788,0.19135356,0.1963023,-0.06350958,-24.080126,-1.2624547,17.280157,-199.7745,0.0,0.0,0.0,0.0,1001.16,25.7,101.1436,9999999.0,101.1436,9999999.0,-2.8194497,-2.8160446,-86.66621,-5.1580443,-2.8800368,-0.06348309,0.04809738,-0.022434566,-199.79178
22:22:39.607;-0.41216105,-0.7399138,8.115256,-0.11382222,-0.10887349,-0.12454474,-24.0849,-1.2675638,17.283325,-199.763,0.0,0.0,0.0,0.0,1001.25995,25.7,100.30336,9999999.0,100.30336,9999999.0,-2.866682,-2.870032,-88.95197,-5.202907,-2.8954744,-0.06644247,0.04526667,-0.024085816,-199.7745
22:22:39.632;-0.41400474,-0.74516,8.116431,-0.052787066,0.013196826,-0.06350958,-24.08872,-1.271651,17.28586,-199.75378,0.0,0.0,0.0,0.0,1001.19995,25.7,100.80804,9999999.0,100.80804,9999999.0,-2.9187002,-2.9181592,-91.19496,-5.23878,-2.9078174,-0.067762144,0.04559659,-0.02732398,-199.763
22:22:39.658;-0.4154797,-0.734034,8.125032,-0.17485738,0.013196826,-0.12454474,-24.091776,-1.2749208,17.287888,-199.7464,0.0,0.0,0.0,0.0,1001.16,25.7,101.1436,9999999.0,101.1436,9999999.0,-2.967533,-2.9661424,-93.39453,-5.155518,-2.9154606,-0.07248329,0.0459529,-0.02897523,-199.75378
22:22:39.684;-0.4089982,-0.7404561,8.124252,0.008248091,0.13526714,0.18063104,-24.094221,-1.2591367,17.27111,-199.78415,0.0,0.0,0.0,0.0,1001.06,25.7,101.98649,9999999.0,101.98649,9999999.0,-3.010631,-3.0043743,-95.55314,-5.201082,-2.870125,-0.07226884,0.049469847,-0.032213394,-199.7464
22:22:39.709;-0.41147447,-0.7379323,8.123629,-0.11382222,0.013196826,-0.0024744272,-24.096176,-1.2465093,17.257689,-199.81433,0.0,0.0,0.0,0.0,1001.13995,25.7,101.312706,9999999.0,101.312706,9999999.0,-3.0507505,-3.0471675,-97.6649,-5.183767,-2.887773,-0.0751144,0.049799766,-0.027697617,-199.78415
22:22:39.734;-0.4134555,-0.73591334,8.115468,-0.11382222,0.07423198,0.119595885,-24.09774,-1.2548075,17.26535,-199.79483,0.0,0.0,0.0,0.0,1001.19995,25.7,100.80804,9999999.0,100.80804,9999999.0,-3.0923963,-3.0868948,-99.73509,-5.174754,-2.9046063,-0.07784613,0.051581334,-0.027757004,-199.81433
22:22:39.758;-0.42270175,-0.7419596,8.108939,0.19135356,-0.04783833,-0.0024744272,-24.098991,-1.261446,17.27148,-199.77927,0.0,0.0,0.0,0.0,1001.13995,25.7,101.312706,9999999.0,101.312706,9999999.0,-3.1248865,-3.122993,-101.76056,-5.220898,-2.9716153,-0.07306229,0.050385375,-0.024767106,-199.79483
22:22:39.787;-0.43009874,-0.73913515,8.103716,-0.11382222,0.013196826,-0.06350958,-24.099993,-1.2667568,17.276384,-199.76678,0.0,0.0,0.0,0.0,1001.19995,25.7,100.80804,9999999.0,100.80804,9999999.0,-3.1677403,-3.1645343,-103.74527,-5.2042103,-3.0255454,-0.07624932,0.050754886,-0.024836391,-199.77927
22:22:39.816;-0.4283549,-0.7368756,8.099538,-0.2969277,-0.10887349,0.119595885,-24.100794,-1.2710054,17.261908,-199.7568,0.0,0.0,0.0,0.0,1001.22,25.7,100.64157,9999999.0,100.64157,9999999.0,-3.2135046,-3.212627,-105.69184,-5.1911006,-3.0149152,-0.08486022,0.047597554,-0.02667817,-199.76678
22:22:39.842;-0.41929835,-0.74272937,8.080873,-0.11382222,-0.10887349,-0.06350958,-24.101435,-1.2744043,17.250326,-199.74884,0.0,0.0,0.0,0.0,1001.19995,25.7,100.80804,9999999.0,100.80804,9999999.0,-3.2561626,-3.2529702,-107.59624,-5.244401,-2.9578407,-0.0878196,0.044766843,-0.023568677,-199.7568
22:22:39.870;-0.42737603,-0.739751,8.088924,0.06928325,0.013196826,-0.0024744272,-24.120348,-1.2771235,17.24106,-199.74475,0.0,0.0,0.0,0.0,1001.1,25.7,101.64828,9999999.0,101.64828,9999999.0,-3.2903707,-3.2844381,-109.46413,-5.2180595,-3.011849,-0.08587967,0.045136355,-0.025346946,-199.74884
22:22:39.897;-0.43383816,-0.7297068,8.095366,-0.11382222,0.013196826,0.05856073,-24.135479,-1.2792988,17.233648,-199.74152,0.0,0.0,0.0,0.0,1001.19995,25.7,100.80804,9999999.0,100.80804,9999999.0,-3.3246274,-3.3188906,-111.29464,-5.1433144,-3.0552363,-0.08895287,0.045492668,-0.025413755,-199.74475
22:22:39.922;-0.42368498,-0.7369944,8.100519,-0.23589253,-0.04783833,-0.0024744272,-24.147583,-1.281039,17.227718,-199.73892,0.0,0.0,0.0,0.0,1001.16,25.7,101.1436,9999999.0,101.1436,9999999.0,-3.3621213,-3.355686,-113.08704,-5.1914654,-2.981745,-0.09485018,0.044296708,-0.023949737,-199.74152
22:22:39.947;-0.42322388,-0.735163,8.09698,-0.17485738,0.07423198,-0.12454474,-24.138866,-1.2640312,17.222975,-199.77808,0.0,0.0,0.0,0.0,1001.16,25.7,101.1436,192.48708,102.22823,101.1436,-3.3964741,-3.386323,-114.843605,-5.1808953,-2.979855,-0.09922162,0.046152506,-0.024011597,-199.73892
22:22:39.972;-0.42285502,-0.7413593,8.10181,-0.11382222,0.013196826,-0.12454474,-24.131893,-1.250425,17.21918,-199.80942,0.0,0.0,0.0,0.0,1001.16,25.7,101.1436,192.48708,102.22823,101.1436,-3.4258099,-3.4164762,-116.56888,-5.221245,-2.9753,-0.10206717,0.046482425,-0.027125215,-199.77808
22:22:39.998;-0.42255992,-0.7386549,8.105675,0.008248091,0.013196826,-0.0024744272,-24.126314,-1.2579399,17.234543,-199.79095,0.0,0.0,0.0,0.0,1001.22,25.7,100.64157,192.48708,102.22823,100.64157,-3.4519255,-3.4419763,-118.263565,-5.199853,-2.9719138,-0.101844475,0.046838738,-0.030487923,-199.80942
22:22:40.023;-0.4146624,-0.74415284,8.093443,0.06928325,0.1963023,-0.0024744272,-24.121851,-1.2639519,17.246834,-199.77615,0.0,0.0,0.0,0.0,1001.16,25.7,101.1436,9999999.0,101.1436,9999999.0,-3.4763684,-3.4604447,-119.92404,-5.2464557,-2.9206502,-0.10011239,0.051746294,-0.030549783,-199.79095
22:22:40.049;-0.40834436,-0.7485512,8.091319,-0.052787066,0.07423198,-0.12454474,-24.11828,-1.2687615,17.256666,-199.76431,0.0,0.0,0.0,0.0,1001.19995,25.7,100.80804,9999999.0,100.80804,9999999.0,-3.4981585,-3.4838405,-121.55109,-5.2788725,-2.8768294,-0.10148486,0.053676326,-0.030614119,-199.77615
22:22:40.084;-0.41095138,-0.7444084,8.104943,-0.11382222,-0.04783833,-0.06350958,-24.115425,-1.2726092,17.264532,-199.75485,0.0,0.0,0.0,0.0,1001.19995,25.7,100.80804,9999999.0,100.80804,9999999.0,-3.522776,-3.511724,-123.149506,-5.240983,-2.8904824,-0.105354816,0.052049823,-0.03484864,-199.76431
22:22:40.113;-0.42069843,-0.74109423,8.100519,0.06928325,0.013196826,-0.12454474,-24.11314,-1.2756873,17.270826,-199.74725,0.0,0.0,0.0,0.0,1001.19995,25.7,100.80804,9999999.0,100.80804,9999999.0,-3.5439262,-3.5318851,-124.71757,-5.2202854,-2.9606287,-0.1033456,0.05243253,-0.036690418,-199.75485
22:22:40.138;-0.4284961,-0.7461043,8.081657,-0.052787066,0.1963023,-0.06350958,-24.074512,-1.2781498,17.275862,-199.73657,0.0,0.0,0.0,0.0,1001.19995,25.7,100.80804,9999999.0,100.80804,9999999.0,-3.567938,-3.5520215,-126.25729,-5.267278,-3.0221992,-0.10471807,0.05753639,-0.03992858,-199.74725
22:22:40.164;-0.42707276,-0.75011235,8.074229,-0.11382222,0.13526714,0.05856073,-24.04361,-1.2801199,17.27989,-199.728,0.0,0.0,0.0,0.0,1001.16,25.7,101.1436,9999999.0,101.1436,9999999.0,-3.5897753,-3.5749614,-127.76757,-5.300293,-3.0147843,-0.10756362,0.060918067,-0.041516323,-199.73657
22:22:40.190;-0.41827267,-0.7533188,8.08361,-0.2969277,0.13526714,-0.06350958,-24.018888,-1.281696,17.283112,-199.7211,0.0,0.0,0.0,0.0,1001.1,25.7,101.64828,9999999.0,101.64828,9999999.0,-3.6173677,-3.6005595,-129.24597,-5.3169956,-2.9492753,-0.11528374,0.06443501,-0.039993744,-199.728
22:22:40.214;-0.42655548,-0.7482225,8.083452,0.008248091,0.13526714,-0.06350958,-24.017511,-1.2829567,17.26729,-199.71793,0.0,0.0,0.0,0.0,1001.1,25.7,101.64828,9999999.0,101.64828,9999999.0,-3.6339753,-3.6182706,-130.69617,-5.281051,-3.0078042,-0.11508579,0.067681424,-0.041517973,-199.7211
22:22:40.240;-0.4255203,-0.75180686,8.090988,-0.11382222,0.07423198,0.2416662,-24.016409,-1.2839653,17.254633,-199.7154,0.0,0.0,0.0,0.0,1001.16,25.7,101.1436,9999999.0,101.1436,9999999.0,-3.6548321,-3.6397967,-132.11891,-5.301341,-2.9976301,-0.118045166,0.06961145,-0.043169223,-199.71793
22:22:40.265;-0.42469215,-0.747013,8.081694,0.1303184,0.013196826,-0.12454474,-24.033928,-1.2847723,17.244507,-199.7157,0.0,0.0,0.0,0.0,1001.19995,25.7,100.80804,9999999.0,100.80804,9999999.0,-3.6692832,-3.6554816,-133.50723,-5.2737637,-2.995375,-0.114787206,0.06994137,-0.03712757,-199.7154
22:22:40.291;-0.42402962,-0.73551637,8.097242,-0.052787066,0.07423198,0.05856073,-24.047943,-1.2854178,17.236406,-199.71594,0.0,0.0,0.0,0.0,1001.22,25.7,100.64157,9999999.0,100.64157,9999999.0,-3.6873288,-3.6714716,-134.87083,-5.183179,-2.9854105,-0.11610688,0.07179717,-0.04024119,-199.7157
22:22:40.314;-0.43116105,-0.73398054,8.10202,-0.23589253,-0.10887349,0.05856073,-24.059155,-1.2859342,17.229925,-199.71616,0.0,0.0,0.0,0.0,1001.16,25.7,101.1436,9999999.0,101.1436,9999999.0,-3.7069733,-3.696071,-136.20578,-5.169151,-3.0338063,-0.1217683,0.06918421,-0.03883573,-199.71594
22:22:40.350;-0.4215433,-0.7327519,8.105843,-0.11382222,0.013196826,-0.06350958,-24.049725,-1.2863474,17.24314,-199.71396,0.0,0.0,0.0,0.0,1001.16,25.7,101.1436,9999999.0,101.1436,9999999.0,-3.7294457,-3.7136765,-137.51192,-5.1584506,-2.9649098,-0.12597972,0.06967249,-0.036668982,-199.71616
22:22:40.373;-0.4138491,-0.7394304,8.101239,-0.17485738,0.013196826,0.119595885,-24.04218,-1.286678,17.253712,-199.71222,0.0,0.0,0.0,0.0,1001.1,25.7,101.64828,9999999.0,101.64828,9999999.0,-3.7475119,-3.7305105,-138.79333,-5.208396,-2.9123087,-0.13000144,0.06997602,-0.038129702,-199.71396
22:22:40.405;-0.41535518,-0.7371118,8.105218,-0.17485738,-0.04783833,-0.06350958,-24.036144,-1.2685424,17.262169,-199.75455,0.0,0.0,0.0,0.0,1001.16,25.7,101.1436,9999999.0,101.1436,9999999.0,-3.7651753,-3.749803,-140.04533,-5.189576,-2.9215436,-0.13559687,0.06844519,-0.034302633,-199.71222
22:22:40.433;-0.41656005,-0.7429184,8.093078,-0.11382222,0.013196826,-0.06350958,-24.031315,-1.2540339,17.268934,-199.78845,0.0,0.0,0.0,0.0,1001.16,25.7,101.1436,192.48708,102.22823,101.1436,-3.7825782,-3.765261,-141.27481,-5.2379727,-2.9341648,-0.13867007,0.06880151,-0.03601739,-199.75455
22:22:40.472;-0.4098625,-0.73224074,8.098688,0.06928325,0.13526714,-0.0024744272,-24.027452,-1.2608272,17.274347,-199.77182,0.0,0.0,0.0,0.0,1001.16,25.7,101.1436,192.48708,102.22823,101.1436,-3.790503,-3.7672315,-142.4828,-5.1597676,-2.885432,-0.13596803,0.07407693,-0.038494267,-199.78845
22:22:40.506;-0.41216588,-0.7390215,8.103177,0.008248091,0.1963023,-0.06350958,-24.024363,-1.2662617,17.278677,-199.75851,0.0,0.0,0.0,0.0,1001.16,25.7,101.1436,192.48708,102.22823,101.1436,-3.7956991,-3.7712405,-143.6664,-5.204351,-2.8998103,-0.13568759,0.08075121,-0.0385784,-199.77182
22:22:40.530;-0.41400862,-0.7444461,8.106768,0.008248091,0.1963023,-0.0024744272,-24.02189,-1.2522093,17.263742,-199.79163,0.0,0.0,0.0,0.0,1001.19995,25.7,100.80804,192.48708,102.22823,100.80804,-3.8004212,-3.7780218,-144.82753,-5.239977,-2.911299,-0.13548964,0.085462466,-0.040102627,-199.75851
22:22:40.556;-0.4154828,-0.74112433,8.117302,0.1303184,-0.04783833,-0.0024744272,-24.019913,-1.2409674,17.251795,-199.81812,0.0,0.0,0.0,0.0,1001.16,25.7,101.1436,9999999.0,101.1436,9999999.0,-3.8033402,-3.7868526,-145.96617,-5.209962,-2.9180021,-0.13210136,0.084218666,-0.040166963,-199.79163
22:22:40.589;-0.4090007,-0.7461284,8.110407,0.008248091,0.07423198,-0.0024744272,-24.01833,-1.2319739,17.242235,-199.83932,0.0,0.0,0.0,0.0,1001.19995,25.7,100.80804,9999999.0,100.80804,9999999.0,-3.8158402,-3.7946188,-147.08266,-5.249578,-2.8748112,-0.13182917,0.08666832,-0.040248618,-199.81812
22:22:40.614;-0.4191379,-0.7501316,8.104891,-0.17485738,-0.04783833,-0.06350958,-24.017063,-1.2431791,17.234589,-199.8125,0.0,0.0,0.0,0.0,1001.22,25.7,100.64157,9999999.0,100.64157,9999999.0,-3.8286266,-3.812182,-148.17729,-5.2808127,-2.9477918,-0.1362006,0.08547236,-0.04031048,-199.83932
22:22:40.641;-0.42724767,-0.74567276,8.108139,0.1303184,0.07423198,-0.06350958,-24.01605,-1.2521433,17.228472,-199.79105,0.0,0.0,0.0,0.0,1001.25995,25.7,100.30336,9999999.0,100.30336,9999999.0,-3.8374348,-3.8187957,-149.25117,-5.2472415,-3.0036836,-0.13268201,0.087476626,-0.04202524,-199.8125
22:22:40.667;-0.4337355,-0.7497671,8.103076,-0.052787066,0.07423198,-0.12454474,-24.05204,-1.2593147,17.223577,-199.77847,0.0,0.0,0.0,0.0,1001.22,25.7,100.64157,9999999.0,100.64157,9999999.0,-3.8493953,-3.8314624,-150.30484,-5.2789373,-3.0509543,-0.13410726,0.08948089,-0.043739997,-199.79105
22:22:40.703;-0.43126428,-0.7453812,8.106688,-0.11382222,0.07423198,-0.0024744272,-24.080832,-1.2650517,17.219662,-199.76843,0.0,0.0,0.0,0.0,1001.25995,25.7,100.30336,9999999.0,100.30336,9999999.0,-3.8637688,-3.8445227,-151.34155,-5.245996,-3.0324163,-0.13820486,0.09215324,-0.048223607,-199.77847
22:22:40.729;-0.43694878,-0.74187243,8.101915,-0.17485738,0.013196826,-0.12454474,-24.085464,-1.2696414,17.23493,-199.75812,0.0,0.0,0.0,0.0,1001.07996,25.7,101.81738,9999999.0,101.81738,9999999.0,-3.8765736,-3.8601904,-152.3574,-5.2242937,-3.0742226,-0.14275116,0.09249636,-0.048287943,-199.76843
22:22:40.756;-0.44149637,-0.7467269,8.105759,-0.11382222,0.07423198,-0.1855799,-24.089172,-1.2733132,17.247145,-199.74988,0.0,0.0,0.0,0.0,1001.19995,25.7,100.80804,9999999.0,100.80804,9999999.0,-3.8911114,-3.8734157,-153.35605,-5.255657,-3.104529,-0.14582436,0.09450062,-0.05165065,-199.75812
22:22:40.783;-0.437473,-0.74294895,8.1011715,-0.11382222,0.07423198,-0.12454474,-24.092138,-1.2762505,17.256916,-199.74329,0.0,0.0,0.0,0.0,1001.19995,25.6,100.80804,9999999.0,100.80804,9999999.0,-3.903605,-3.8851316,-154.33945,-5.2322907,-3.0781465,-0.14889756,0.09650489,-0.056661308,-199.74988
22:22:40.810;-0.4342543,-0.73992664,8.105164,0.06928325,-0.16990864,-0.0024744272,-24.094511,-1.2970004,17.283133,-199.6944,0.0,0.0,0.0,0.0,1001.16,25.7,101.1436,9999999.0,101.1436,9999999.0,-3.9098375,-3.8970532,-155.30623,-5.2086883,-3.0541556,-0.14709619,0.09208726,-0.05989947,-199.74329
22:22:40.838;-0.43167934,-0.74517024,8.093035,0.008248091,-0.2309438,0.119595885,-24.096409,-1.3136003,17.304106,-199.65527,0.0,0.0,0.0,0.0,1001.22,25.7,100.64157,9999999.0,100.64157,9999999.0,-3.9239514,-3.9126174,-156.25276,-5.2532787,-3.0404046,-0.14686523,0.085620835,-0.059968755,-199.6944
22:22:40.866;-0.42961937,-0.7493651,8.098654,-0.11382222,-0.10887349,0.05856073,-24.097927,-1.2900802,17.320885,-199.71124,0.0,0.0,0.0,0.0,1001.19995,25.7,100.80804,192.48708,102.22823,100.80804,-3.9430707,-3.9276707,-157.1763,-5.279121,-3.023702,-0.15005225,0.08257238,-0.05662007,-199.65527
22:22:40.892;-0.42030996,-0.74505955,8.095488,-0.11382222,0.13526714,-0.0024744272,-24.099142,-1.2712642,17.334309,-199.75598,0.0,0.0,0.0,0.0,1001.13995,25.7,101.312706,192.48708,102.22823,101.312706,-3.9570436,-3.9336479,-158.081,-5.2513094,-2.959588,-0.15301162,0.08608932,-0.05509749,-199.71124
22:22:40.921;-0.41286242,-0.73395365,8.085294,0.06928325,-0.04783833,-0.0024744272,-24.081715,-1.2746114,17.326647,-199.74588,0.0,0.0,0.0,0.0,1001.27997,25.7,100.136894,190.06802,102.20404,100.136894,-3.9566095,-3.9370613,-158.96857,-5.180175,-2.9112277,-0.1510024,0.08470201,-0.055169247,-199.75598
22:22:40.949;-0.4222273,-0.7327304,8.092462,-0.052787066,-0.10887349,0.05856073,-24.067772,-1.277289,17.320517,-199.73776,0.0,0.0,0.0,0.0,1001.22,25.7,100.64157,189.9989,102.20335,100.64157,-3.9631033,-3.94632,-159.83826,-5.1667376,-2.9745746,-0.15248044,0.08165355,-0.05523853,-199.74588
22:22:40.976;-0.42205775,-0.7317518,8.090534,-0.11382222,-0.04783833,-0.06350958,-24.056618,-1.2794312,17.315613,-199.73126,0.0,0.0,0.0,0.0,1001.1,25.7,101.64828,189.9989,102.20335,101.64828,-3.9736273,-3.9549031,-160.68883,-5.1610994,-2.9741158,-0.15555364,0.08036192,-0.05365739,-199.73776
22:22:41.003;-0.42958355,-0.7309689,8.088992,0.008248091,-0.04783833,-0.06350958,-24.066093,-1.262745,17.33009,-199.77206,0.0,0.0,0.0,0.0,1001.16,25.7,101.1436,192.48708,102.22823,101.1436,-3.9787135,-3.9610047,-161.524,-5.156332,-3.0276477,-0.15533094,0.079022445,-0.055435658,-199.73126
22:22:41.026;-0.42794275,-0.73034257,8.087759,-0.11382222,-0.10887349,-0.0024744272,-24.073675,-1.249396,17.341671,-199.80472,0.0,0.0,0.0,0.0,1001.22,25.7,100.64157,192.48708,102.22823,100.64157,-3.987517,-3.9705524,-162.34473,-5.1527715,-3.0165813,-0.15806268,0.07651836,-0.056896377,-199.77206
22:22:41.053;-0.43429154,-0.72984153,8.094434,-0.11382222,-0.16990864,-0.0024744272,-24.09814,-1.2387167,17.332537,-199.83304,0.0,0.0,0.0,0.0,1001.13995,25.7,101.312706,192.48708,102.22823,101.312706,-3.9970496,-3.9827797,-163.14975,-5.1448307,-3.0587673,-0.16113588,0.071930826,-0.056963187,-199.80472
22:22:41.082;-0.43170914,-0.73710215,8.099773,0.06928325,0.013196826,-0.06350958,-24.117712,-1.2301733,17.32523,-199.85568,0.0,0.0,0.0,0.0,1001.27997,25.7,100.136894,9999999.0,100.136894,9999999.0,-4.0050035,-3.9852958,-163.93932,-5.192425,-3.0383844,-0.15912667,0.07231353,-0.057034943,-199.83304
22:22:41.111;-0.4296432,-0.73524916,8.111707,0.06928325,0.013196826,-0.12454474,-24.13337,-1.2233387,17.319384,-199.87375,0.0,0.0,0.0,0.0,1001.16,25.7,101.1436,9999999.0,101.1436,9999999.0,-4.00706,-3.9869342,-164.71535,-5.1719556,-3.0195296,-0.15711746,0.07269624,-0.05887672,-199.85568
22:22:41.136;-0.43565193,-0.72610533,8.10593,0.008248091,0.07423198,-0.24661505,-24.145895,-1.236271,17.314707,-199.84464,0.0,0.0,0.0,0.0,1001.22,25.7,100.64157,9999999.0,100.64157,9999999.0,-4.009229,-3.9885817,-165.47913,-5.1113877,-3.0641475,-0.15691951,0.07447781,-0.06186579,-199.87375
22:22:41.161;-0.4404589,-0.72645175,8.101309,0.008248091,0.013196826,-0.0024744272,-24.155916,-1.2466168,17.310965,-199.82138,0.0,0.0,0.0,0.0,1001.33997,25.7,99.632225,9999999.0,99.632225,9999999.0,-4.0109386,-3.9923892,-166.2331,-5.116544,-3.0996294,-0.1567133,0.074807726,-0.06803117,-199.84464
22:22:41.187;-0.436643,-0.72672886,8.105273,-0.052787066,0.1963023,0.05856073,-24.145533,-1.2548934,17.326372,-199.80054,0.0,0.0,0.0,0.0,1001.22,25.7,100.64157,9999999.0,100.64157,9999999.0,-4.016209,-3.9923096,-166.9716,-5.1161313,-3.0713303,-0.15808576,0.07991158,-0.068095505,-199.82138
22:22:41.216;-0.42592886,-0.7269505,8.100783,0.008248091,0.1963023,0.05856073,-24.137226,-1.2615148,17.338697,-199.78381,0.0,0.0,0.0,0.0,1001.27997,25.7,100.136894,9999999.0,100.136894,9999999.0,-4.014646,-3.988729,-167.69324,-5.1208544,-2.9977436,-0.15784657,0.08560435,-0.06639724,-199.80054
22:22:41.242;-0.425019,-0.7271279,8.097192,0.008248091,-0.10887349,-0.06350958,-24.13058,-1.2668118,17.348558,-199.77045,0.0,0.0,0.0,0.0,1001.19995,25.7,100.80804,9999999.0,100.80804,9999999.0,-4.011232,-3.9936342,-168.39862,-5.124381,-2.9926593,-0.15763211,0.08277363,-0.064874664,-199.78381
22:22:41.266;-0.4242911,-0.72726977,8.117303,0.06928325,-0.04783833,-0.0024744272,-24.125265,-1.2526494,17.338047,-199.80334,0.0,0.0,0.0,0.0,1001.27997,25.7,100.136894,9999999.0,100.136894,9999999.0,-4.014388,-3.99483,-169.09114,-5.112803,-2.9802094,-0.15596932,0.081625514,-0.0663989,-199.77045
22:22:41.293;-0.43137023,-0.7350447,8.110407,0.008248091,0.13526714,-0.06350958,-24.121012,-1.2413195,17.329638,-199.82965,0.0,0.0,0.0,0.0,1001.22,25.7,100.64157,9999999.0,100.64157,9999999.0,-4.018141,-3.9948416,-169.77052,-5.171289,-3.0321324,-0.15574662,0.08527773,-0.066465706,-199.80334
22:22:41.320;-0.42937207,-0.73360324,8.1202135,0.06928325,-0.10887349,-0.06350958,-24.099209,-1.2506557,17.35971,-199.80487,0.0,0.0,0.0,0.0,1001.22,25.7,100.64157,9999999.0,100.64157,9999999.0,-4.0162134,-3.999061,-170.4385,-5.155087,-3.0145526,-0.15387598,0.08233815,-0.068180464,-199.82965
22:22:41.347;-0.4201121,-0.73245007,8.120398,-0.11382222,-0.04783833,0.119595885,-24.081768,-1.2581245,17.383768,-199.785,0.0,0.0,0.0,0.0,1001.27997,25.7,100.136894,9999999.0,100.136894,9999999.0,-4.0251474,-4.0049496,-171.09439,-5.1472163,-2.9496272,-0.15706299,0.080998674,-0.06995873,-199.80487
22:22:41.379;-0.42036557,-0.7315275,8.120544,-0.17485738,0.07423198,0.119595885,-24.067814,-1.2640996,17.403015,-199.76907,0.0,0.0,0.0,0.0,1001.33997,25.7,99.632225,9999999.0,99.632225,9999999.0,-4.0331473,-4.009184,-171.73302,-5.1406674,-2.9513805,-0.16265842,0.0833741,-0.06613167,-199.785
22:22:41.411;-0.42056835,-0.7307895,8.113001,-0.17485738,0.07423198,-0.06350958,-24.09345,-1.2504797,17.400013,-199.80457,0.0,0.0,0.0,0.0,1001.19995,25.6,100.80804,9999999.0,100.80804,9999999.0,-4.037288,-4.013325,-172.3548,-5.140239,-2.9555442,-0.16825385,0.08574952,-0.062304597,-199.76907
22:22:41.441;-0.4207306,-0.73019904,8.106966,-0.17485738,0.1963023,0.05856073,-24.11396,-1.2395837,17.39761,-199.83292,0.0,0.0,0.0,0.0,1001.25995,25.7,100.30336,9999999.0,100.30336,9999999.0,-4.0409975,-4.013584,-172.96672,-5.1398954,-2.9588811,-0.17349957,0.09163859,-0.064209886,-199.80457
22:22:41.470;-0.4285218,-0.7297267,8.109799,-0.052787066,-0.10887349,-0.0024744272,-24.111969,-1.249267,17.377287,-199.80972,0.0,0.0,0.0,0.0,1001.19995,25.7,100.80804,9999999.0,100.80804,9999999.0,-4.0375032,-4.020098,-173.5653,-5.1345515,-3.0125477,-0.1750304,0.088481255,-0.06251162,-199.83292
22:22:41.498;-0.42709336,-0.73701024,8.119727,-0.17485738,0.07423198,0.05856073,-24.110374,-1.2570136,17.361029,-199.79117,0.0,0.0,0.0,0.0,1001.22,25.7,100.64157,9999999.0,100.64157,9999999.0,-4.047909,-4.0249596,-174.15152,-5.179282,-2.9986484,-0.17975155,0.09048552,-0.06257843,-199.80972
22:22:41.532;-0.41828912,-0.7428371,8.112347,-0.052787066,0.07423198,-0.0024744272,-24.1275,-1.2632109,17.348022,-199.7786,0.0,0.0,0.0,0.0,1001.25995,25.6,100.30336,192.48708,102.22823,100.30336,-4.0507193,-4.0260196,-174.7237,-5.2250075,-2.9393973,-0.1815463,0.093009405,-0.06058737,-199.79117
22:22:41.562;-0.42656866,-0.7398371,8.114103,-0.17485738,-0.2309438,-0.0024744272,-24.141201,-1.2681687,17.337618,-199.76855,0.0,0.0,0.0,0.0,1001.16,25.7,101.1436,192.48708,102.22823,101.1436,-4.0546923,-4.040327,-175.28426,-5.2026305,-2.996932,-0.18679202,0.08608109,-0.060661603,-199.7786
22:22:41.597;-0.42553082,-0.7450986,8.107847,0.008248091,-0.04783833,-0.06350958,-24.13376,-1.253735,17.329294,-199.80182,0.0,0.0,0.0,0.0,1001.13995,25.6,101.312706,192.48708,102.22823,101.312706,-4.064107,-4.0443006,-175.83347,-5.2434688,-2.9917614,-0.18650334,0.08440675,-0.06074821,-199.76855
22:22:41.622;-0.432362,-0.7339849,8.102842,-0.052787066,-0.04783833,-0.06350958,-24.127808,-1.242188,17.322636,-199.82843,0.0,0.0,0.0,0.0,1001.13995,25.6,101.312706,9999999.0,101.312706,9999999.0,-4.0680804,-4.0487294,-176.37392,-5.168621,-3.041935,-0.18782301,0.08321079,-0.06233595,-199.80182
22:22:41.650;-0.4301655,-0.7404168,8.091177,0.008248091,-0.2309438,-0.06350958,-24.104647,-1.2329503,17.298908,-199.8475,0.0,0.0,0.0,0.0,1001.19995,25.7,100.80804,9999999.0,100.80804,9999999.0,-4.071944,-4.0576806,-176.9059,-5.221194,-3.0306125,-0.18758382,0.07651342,-0.06417773,-199.82843
22:22:41.691;-0.4284083,-0.7379009,8.097168,-0.17485738,-0.04783833,-0.0024744272,-24.086117,-1.2255603,17.279926,-199.8628,0.0,0.0,0.0,0.0,1001.22,25.6,100.64157,9999999.0,100.64157,9999999.0,-4.087377,-4.0678277,-177.43011,-5.1997914,-3.0161297,-0.19457811,0.074599884,-0.06671811,-199.8475
22:22:41.727;-0.42700255,-0.7282267,8.0866375,-0.052787066,0.013196826,0.05856073,-24.071293,-1.2012483,17.264742,-199.91873,0.0,0.0,0.0,0.0,1001.19995,25.7,100.80804,9999999.0,100.80804,9999999.0,-4.0911584,-4.0690656,-177.94423,-5.138662,-3.0104494,-0.19653124,0.075088166,-0.06680966,-199.8628
22:22:41.787;-0.4335394,-0.7204874,8.101198,-0.17485738,-0.16990864,-0.12454474,-24.059435,-1.2001987,17.252594,-199.9198,0.0,0.0,0.0,0.0,1001.16,25.6,101.1436,9999999.0,101.1436,9999999.0,-4.0991244,-4.087825,-178.44586,-5.0750566,-3.0512676,-0.20667297,0.06523346,-0.06341314,-199.91873
22:22:41.821;-0.4311074,-0.72961885,8.112846,-0.2969277,-0.04783833,-0.0024744272,-24.049948,-1.1993589,17.242876,-199.92068,0.0,0.0,0.0,0.0,1001.22,25.7,100.64157,9999999.0,100.64157,9999999.0,-4.1191797,-4.0990753,-178.9419,-5.1317987,-3.0295672,-0.21736236,0.06351128,-0.06789675,-199.9198
22:22:41.885;-0.43682328,-0.736924,8.106842,0.25238872,0.07423198,-0.06350958,-24.060759,-1.1986872,17.235102,-199.92355,0.0,0.0,0.0,0.0,1001.25995,25.6,100.30336,9999999.0,100.30336,9999999.0,-4.1052413,-4.0799866,-179.42816,-5.186514,-3.071662,-0.20146187,0.0681879,-0.06805264,-199.92068
22:22:41.937;-0.43373454,-0.7427681,8.102038,0.008248091,0.25733745,0.05856073,-24.069407,-1.1981498,17.247282,-199.92584,0.0,0.0,0.0,0.0,1001.22,25.6,100.64157,9999999.0,100.64157,9999999.0,-4.10257,-4.068184,-179.90807,-5.230598,-3.0515747,-0.20102471,0.08182678,-0.07141865,-199.92355
22:22:41.961;-0.43126354,-0.739782,8.098196,-0.23589253,0.13526714,-0.06350958,-24.076324,-1.1977198,17.257025,-199.9277,0.0,0.0,0.0,0.0,1001.27997,25.6,100.136894,9999999.0,100.136894,9999999.0,-4.0963817,-4.0721197,-180.37709,-5.2122207,-3.0357487,-0.20645024,0.08493793,-0.07007176,-199.92584
22:22:42.053;-0.42928672,-0.737393,8.0874605,-0.11382222,0.1963023,-0.06350958,-24.08186,-1.2157758,17.24642,-199.8855,0.0,0.0,0.0,0.0,1001.22,25.6,100.64157,9999999.0,100.64157,9999999.0,-4.1050987,-4.065624,-180.84256,-5.202388,-3.0259109,-0.21703571,0.10319404,-0.075978145,-199.9277
22:22:42.118;-0.4277053,-0.7431433,8.086534,-0.052787066,0.25733745,0.119595885,-24.067888,-1.2302207,17.237936,-199.84952,0.0,0.0,0.0,0.0,1001.16,25.6,101.1436,9999999.0,101.1436,9999999.0,-4.09249,-4.054799,-181.30186,-5.2433815,-3.0149324,-0.22041409,0.11966364,-0.08004276,-199.8855
22:22:42.147;-0.43410158,-0.74774355,8.093453,0.06928325,0.013196826,-0.06350958,-24.056711,-1.2417766,17.23115,-199.82071,0.0,0.0,0.0,0.0,1001.22,25.6,100.64157,9999999.0,100.64157,9999999.0,-4.0770855,-4.0562997,-181.74776,-5.2709637,-3.0571876,-0.21833558,0.12005954,-0.07645488,-199.84952
22:22:42.178;-0.43155718,-0.7437623,8.0989895,0.008248091,0.013196826,0.119595885,-24.04777,-1.2510213,17.24412,-199.79764,0.0,0.0,0.0,0.0,1001.19995,25.6,100.80804,9999999.0,100.80804,9999999.0,-4.0797153,-4.0584674,-182.18608,-5.2395897,-3.037382,-0.2180799,0.12046865,-0.07842367,-199.82071
22:22:42.309;-0.42952165,-0.74823874,8.095757,0.008248091,0.13526714,-0.06350958,-24.040615,-1.258417,17.254496,-199.77917,0.0,0.0,0.0,0.0,1001.25995,25.6,100.30336,9999999.0,100.30336,9999999.0,-4.0817013,-4.043184,-182.59982,-5.2731047,-3.0241246,-0.2169994,0.13818865,-0.06275661,-199.79764
22:22:42.338;-0.42023176,-0.74415845,8.09317,0.008248091,0.013196826,0.05856073,-24.034893,-1.2643336,17.262796,-199.7644,0.0,0.0,0.0,0.0,1001.19995,25.6,100.80804,9999999.0,100.80804,9999999.0,-4.067015,-4.0444975,-183.00671,-5.2464857,-2.959907,-0.2167602,0.13857135,-0.06459839,-199.77917
22:22:42.458;-0.4204613,-0.74855566,8.0987625,0.06928325,-0.04783833,-0.24661505,-24.030315,-1.2506669,17.269438,-199.79633,0.0,0.0,0.0,0.0,1001.25995,25.6,100.30336,9999999.0,100.30336,9999999.0,-4.061002,-4.044548,-183.39835,-5.273691,-2.95935,-0.2085155,0.13287859,-0.057629663,-199.7644
22:22:42.549;-0.42830637,-0.7520734,8.103236,0.06928325,-0.10887349,-0.0024744272,-24.045052,-1.2397335,17.27475,-199.82413,0.0,0.0,0.0,0.0,1001.16,25.6,101.1436,9999999.0,101.1436,9999999.0,-4.0633817,-4.052078,-183.80478,-5.2951665,-3.0126984,-0.20221072,0.1229711,-0.080071636,-199.79633
22:22:42.578;-0.43458244,-0.75488764,8.106815,0.008248091,0.013196826,-0.0024744272,-24.05684,-1.2493868,17.279,-199.80264,0.0,0.0,0.0,0.0,1001.19995,25.6,100.80804,9999999.0,100.80804,9999999.0,-4.077048,-4.056238,-184.2037,-5.312324,-3.0553281,-0.20197153,0.12335381,-0.08014339,-199.82413
22:22:42.671;-0.43194187,-0.74947757,8.11734,-0.11382222,-0.16990864,0.05856073,-24.066273,-1.2387094,17.3008,-199.82916,0.0,0.0,0.0,0.0,1001.27997,25.6,100.136894,9999999.0,100.136894,9999999.0,-4.0909543,-4.0854487,-184.59445,-5.2677774,-3.0330875,-0.21267082,0.1073824,-0.08037599,-199.80264
22:22:42.698;-0.4298294,-0.75281096,8.118098,0.1303184,0.1963023,-0.1855799,-24.073818,-1.2301675,17.318241,-199.85037,0.0,0.0,0.0,0.0,1001.19995,25.6,100.80804,9999999.0,100.80804,9999999.0,-4.106105,-4.0791464,-184.97636,-5.2906566,-3.0178888,-0.20915222,0.112682566,-0.07879485,-199.82916
22:22:42.721;-0.42047796,-0.75547767,8.118705,-0.11382222,0.013196826,-0.0024744272,-24.079855,-1.223334,17.313793,-199.86731,0.0,0.0,0.0,0.0,1001.19995,25.6,100.80804,9999999.0,100.80804,9999999.0,-4.106313,-4.08293,-185.35526,-5.309215,-2.9520411,-0.21177013,0.112986095,-0.08306319,-199.85037
22:22:42.810;-0.42065826,-0.75761104,8.126852,0.008248091,0.013196826,0.05856073,-24.066284,-1.2362672,17.328634,-199.83496,0.0,0.0,0.0,0.0,1001.16,25.6,101.1436,9999999.0,101.1436,9999999.0,-4.1069283,-4.082645,-185.72711,-5.318823,-2.950303,-0.21103606,0.11416061,-0.08328342,-199.86731
22:22:42.836;-0.41314107,-0.75931776,8.118047,-0.17485738,0.07423198,0.05856073,-24.073828,-1.2282138,17.340508,-199.85501,0.0,0.0,0.0,0.0,1001.22,25.6,100.64157,9999999.0,100.64157,9999999.0,-4.1120105,-4.085966,-186.08945,-5.336721,-2.9007258,-0.21540749,0.11601641,-0.0818194,-199.83496
22:22:42.861;-0.41478875,-0.7453602,8.111002,0.008248091,0.013196826,0.119595885,-24.079863,-1.221771,17.350006,-199.87103,0.0,0.0,0.0,0.0,1001.22,25.6,100.64157,9999999.0,100.64157,9999999.0,-4.1089177,-4.084721,-186.44351,-5.2436333,-2.9152384,-0.21520129,0.11634633,-0.08035538,-199.85501
22:22:42.952;-0.40844545,-0.7495171,8.105367,-0.17485738,0.013196826,-0.0024744272,-24.08469,-1.2166167,17.339205,-199.88385,0.0,0.0,0.0,0.0,1001.19995,25.6,100.80804,9999999.0,100.80804,9999999.0,-4.1241517,-4.0979433,-186.78015,-5.2765565,-2.8725724,-0.23111331,0.117547244,-0.06947216,-199.87103
22:22:42.980;-0.4186937,-0.75284255,8.093197,-0.11382222,-0.04783833,-0.0024744272,-24.070152,-1.2308934,17.330564,-199.8482,0.0,0.0,0.0,0.0,1001.32,25.6,99.79868,9999999.0,99.79868,9999999.0,-4.1252556,-4.103039,-187.11038,-5.3073974,-2.9487934,-0.23430033,0.11620777,-0.06954144,-199.88385
22:22:43.010;-0.41923085,-0.7401801,8.0987835,0.06928325,0.013196826,0.05856073,-24.058521,-1.2423147,17.323652,-199.81967,0.0,0.0,0.0,0.0,1001.16,25.6,101.1436,9999999.0,101.1436,9999999.0,-4.1232414,-4.099408,-187.43336,-5.2150383,-2.9509752,-0.23222183,0.11660367,-0.06961567,-199.8482
22:22:43.038;-0.42732203,-0.73771155,8.103253,0.19135356,0.013196826,-0.12454474,-24.067617,-1.2514517,17.318121,-199.79907,0.0,0.0,0.0,0.0,1001.25995,25.6,100.30336,9999999.0,100.30336,9999999.0,-4.1160617,-4.093504,-187.7477,-5.1946287,-3.0062659,-0.22686392,0.116973184,-0.06797597,-199.81967
22:22:43.088;-0.43379498,-0.74339813,8.1144905,0.008248091,-0.10887349,0.119595885,-24.074894,-1.2587614,17.313696,-199.78262,0.0,0.0,0.0,0.0,1001.22,25.6,100.64157,9999999.0,100.64157,9999999.0,-4.1157627,-4.0998363,-188.06155,-5.2270417,-3.047342,-0.22644326,0.11142064,-0.07432775,-199.79907
22:22:43.118;-0.43131188,-0.740286,8.100496,-0.11382222,0.013196826,-0.12454474,-24.062315,-1.2462091,17.310156,-199.81088,0.0,0.0,0.0,0.0,1001.25995,25.6,100.30336,9999999.0,100.30336,9999999.0,-4.1254716,-4.1032786,-188.3653,-5.2142816,-3.035218,-0.22985792,0.11181654,-0.07073987,-199.78262
22:22:43.147;-0.4293254,-0.7301348,8.104624,-0.17485738,-0.10887349,0.05856073,-24.052252,-1.2361673,17.307325,-199.8335,0.0,0.0,0.0,0.0,1001.25995,25.6,100.30336,9999999.0,100.30336,9999999.0,-4.1289954,-4.109911,-188.66708,-5.1406355,-3.0200813,-0.23492879,0.10865921,-0.07435167,-199.81088
22:22:43.176;-0.43539765,-0.7296753,8.100264,-0.052787066,0.1963023,0.05856073,-24.0442,-1.2281338,17.286661,-199.8516,0.0,0.0,0.0,0.0,1001.19995,25.6,100.80804,9999999.0,100.80804,9999999.0,-4.1319604,-4.105222,-188.96167,-5.1399565,-3.0643635,-0.23640682,0.11415567,-0.07271197,-199.8335
22:22:43.201;-0.42493257,-0.7369691,8.104437,0.008248091,0.07423198,-0.0024744272,-24.037762,-1.221707,17.270128,-199.86609,0.0,0.0,0.0,0.0,1001.19995,25.6,100.80804,9999999.0,100.80804,9999999.0,-4.126691,-4.10212,-189.24928,-5.188758,-2.9890788,-0.23620062,0.11601147,-0.07124795,-199.8516
22:22:43.227;-0.42422196,-0.73514277,8.107776,-0.17485738,0.013196826,0.05856073,-24.03261,-1.2165656,17.256903,-199.87772,0.0,0.0,0.0,0.0,1001.19995,25.6,100.80804,9999999.0,100.80804,9999999.0,-4.1280103,-4.104772,-189.53151,-5.1738787,-2.982933,-0.24074692,0.116354585,-0.071312286,-199.86609
22:22:43.310;-0.41599202,-0.7260202,8.102785,0.008248091,-0.10887349,0.119595885,-24.046888,-1.2308525,17.246323,-199.84546,0.0,0.0,0.0,0.0,1001.22,25.6,100.64157,9999999.0,100.64157,9999999.0,-4.124274,-4.109189,-189.80354,-5.1134057,-2.9272435,-0.24006233,0.10731809,-0.06645174,-199.87772
22:22:43.349;-0.42473096,-0.7340451,8.098793,0.008248091,0.07423198,-0.06350958,-24.058311,-1.242282,17.237858,-199.8197,0.0,0.0,0.0,0.0,1001.25995,25.6,100.30336,9999999.0,100.30336,9999999.0,-4.130127,-4.104484,-190.06493,-5.171861,-2.9898214,-0.23974065,0.11021314,-0.061787505,-199.84546
22:22:43.378;-0.42406067,-0.740465,8.095599,-0.052787066,-0.16990864,-0.12454474,-24.06745,-1.2514256,17.231087,-199.79913,0.0,0.0,0.0,0.0,1001.16,25.6,101.1436,9999999.0,101.1436,9999999.0,-4.1282725,-4.1102567,-190.32237,-5.2189093,-2.986064,-0.24127148,0.105285786,-0.063629285,-199.8197
22:22:43.407;-0.42352444,-0.7379395,8.100706,0.008248091,-0.16990864,0.119595885,-24.07476,-1.2587405,17.22567,-199.78265,0.0,0.0,0.0,0.0,1001.16,25.6,101.1436,9999999.0,101.1436,9999999.0,-4.131777,-4.113747,-190.57793,-5.1979723,-2.9805176,-0.24103229,0.10018852,-0.067365624,-199.79913
22:22:43.456;-0.42309546,-0.73591906,8.104792,0.008248091,-0.04783833,0.05856073,-24.080608,-1.2645924,17.221336,-199.7695,0.0,0.0,0.0,0.0,1001.19995,25.6,100.80804,9999999.0,100.80804,9999999.0,-4.134701,-4.113779,-190.82242,-5.181241,-2.9760852,-0.24062814,0.097892284,-0.061625022,-199.78265
22:22:43.636;-0.42275226,-0.74196416,8.092737,0.06928325,-0.47508442,-0.24661505,-24.085287,-1.2508739,17.217869,-199.80264,0.0,0.0,0.0,0.0,1001.16,25.6,101.1436,9999999.0,101.1436,9999999.0,-4.1239076,-4.184791,-191.05144,-5.231295,-2.9778595,-0.22815715,0.012377083,-0.05108409,-199.7695
22:22:43.668;-0.40715483,-0.7391388,8.106077,0.008248091,0.5014781,-0.0024744272,-24.08903,-1.2398992,17.215096,-199.82913,0.0,0.0,0.0,0.0,1001.32,25.6,99.79868,192.48708,102.22823,99.79868,-4.204906,-4.1623535,-191.28426,-5.2034864,-2.8635955,-0.2278932,0.028424382,-0.05897577,-199.80264
22:22:43.704;-0.42532265,-0.7368785,8.11675,-0.052787066,-0.3530141,-0.06350958,-24.092024,-1.2495193,17.212877,-199.80667,0.0,0.0,0.0,0.0,1001.16,25.6,101.1436,192.48708,102.22823,101.1436,-4.184575,-4.1730843,-191.51305,-5.1803045,-2.9873276,-0.22979353,0.015715875,-0.05906485,-199.82913
22:22:43.730;-0.41687256,-0.75039315,8.1023035,0.008248091,-0.10887349,-0.1855799,-24.09442,-1.2572155,17.211102,-199.78873,0.0,0.0,0.0,0.0,1001.19995,25.6,100.80804,192.48708,102.22823,100.80804,-4.1951,-4.172628,-191.73842,-5.284392,-2.9328055,-0.22957908,0.0128851645,-0.0607161,-199.80667
22:22:43.757;-0.4101125,-0.745882,8.098408,-0.2969277,-0.16990864,-0.0024744272,-24.096336,-1.2633724,17.20968,-199.77435,0.0,0.0,0.0,0.0,1001.25995,25.6,100.30336,9999999.0,100.30336,9999999.0,-4.202434,-4.1807847,-191.96402,-5.2555304,-2.8868487,-0.23789304,0.008127723,-0.065912336,-199.78873
22:22:43.789;-0.40470445,-0.76525736,8.110614,0.25238872,0.1963023,0.119595885,-24.07947,-1.249898,17.226944,-199.80423,0.0,0.0,0.0,0.0,1001.19995,25.6,100.80804,192.55618,102.22892,100.80804,-4.1969213,-4.1637063,-192.1849,-5.3833895,-2.8439727,-0.2298166,0.014409397,-0.06599152,-199.77435
22:22:43.820;-0.40803945,-0.7501119,8.097395,-0.052787066,0.37940776,0.119595885,-24.065975,-1.2391183,17.240755,-199.82816,0.0,0.0,0.0,0.0,1001.27997,25.6,100.136894,192.55618,102.22892,100.136894,-4.1877537,-4.149922,-192.39833,-5.2858896,-2.872499,-0.231453,0.026171036,-0.06228405,-199.80423
22:22:43.852;-0.403046,-0.76097983,8.102142,-0.11382222,0.07423198,-0.0024744272,-24.07358,-1.2488947,17.233404,-199.80588,0.0,0.0,0.0,0.0,1001.19995,25.6,100.80804,9999999.0,100.80804,9999999.0,-4.1776743,-4.1485004,-192.60422,-5.359079,-2.8354075,-0.2350953,0.02854646,-0.05845698,-199.82816
22:22:43.885;-0.4067127,-0.7543513,8.113602,0.1303184,0.1963023,-0.06350958,-24.079664,-1.2567158,17.227524,-199.78809,0.0,0.0,0.0,0.0,1001.19995,25.6,100.80804,9999999.0,100.80804,9999999.0,-4.1675453,-4.1351857,-192.8056,-5.305106,-2.8573766,-0.23092511,0.034828134,-0.05853616,-199.80588
22:22:43.917;-0.40964606,-0.74904853,8.107447,-0.052787066,-0.04783833,0.05856073,-24.084532,-1.2445726,17.241219,-199.81747,0.0,0.0,0.0,0.0,1001.16,25.6,101.1436,9999999.0,101.1436,9999999.0,-4.159575,-4.1354895,-193.00461,-5.2718954,-2.8802857,-0.2326143,0.033297308,-0.060568467,-199.78809
22:22:43.948;-0.4043313,-0.75246775,8.110184,0.06928325,-0.10887349,-0.0024744272,-24.088425,-1.2348582,17.252174,-199.841,0.0,0.0,0.0,0.0,1001.07996,25.6,101.81738,9999999.0,101.81738,9999999.0,-4.1565595,-4.1335745,-193.19844,-5.294224,-2.841919,-0.23046651,0.02992223,-0.058753084,-199.81747
22:22:43.981;-0.40774095,-0.7552031,8.112373,-0.11382222,0.013196826,0.05856073,-24.07314,-1.2454865,17.260939,-199.81393,0.0,0.0,0.0,0.0,1001.13995,25.6,101.312706,9999999.0,101.312706,9999999.0,-4.1608205,-4.134477,-193.38895,-5.311826,-2.86499,-0.23422265,0.030357726,-0.05883474,-199.841
22:22:44.013;-0.4181301,-0.74973,8.106463,-0.11382222,0.07423198,-0.0024744272,-24.060911,-1.2539892,17.26795,-199.79224,0.0,0.0,0.0,0.0,1001.22,25.6,100.64157,9999999.0,100.64157,9999999.0,-4.1608973,-4.1341543,-193.57327,-5.2770195,-2.940165,-0.23786496,0.03273315,-0.056960795,-199.81393
22:22:44.044;-0.41877997,-0.73769003,8.086412,0.19135356,0.1963023,-0.0024744272,-24.051128,-1.2607914,17.25516,-199.77484,0.0,0.0,0.0,0.0,1001.19995,25.6,100.80804,9999999.0,100.80804,9999999.0,-4.149768,-4.1198564,-193.75354,-5.2054925,-2.9523537,-0.231933,0.03881852,-0.057037503,-199.79224
22:22:44.077;-0.41163844,-0.7357195,8.108679,-0.052787066,0.07423198,0.119595885,-24.043303,-1.2662331,17.244928,-199.76096,0.0,0.0,0.0,0.0,1001.19995,25.6,100.80804,9999999.0,100.80804,9999999.0,-4.1427217,-4.115352,-193.92995,-5.1777544,-2.8942666,-0.23367497,0.041268174,-0.057119157,-199.77484
22:22:44.108;-0.4212481,-0.7264816,8.103508,-0.11382222,0.1963023,0.18063104,-24.055443,-1.2521864,17.255142,-199.79584,0.0,0.0,0.0,0.0,1001.13995,25.6,101.312706,9999999.0,101.312706,9999999.0,-4.1389346,-4.1092772,-194.0988,-5.1160154,-2.963887,-0.23731728,0.047549848,-0.05329209,-199.76096
22:22:44.139;-0.4212744,-0.7344142,8.099371,-0.052787066,0.07423198,0.119595885,-24.065155,-1.2409492,17.263313,-199.8237,0.0,0.0,0.0,0.0,1001.22,25.6,100.64157,9999999.0,100.64157,9999999.0,-4.1321793,-4.106587,-194.25949,-5.1741962,-2.9653115,-0.23895368,0.049851038,-0.047692526,-199.79584
22:22:44.174;-0.4059725,-0.74076027,8.103724,-0.052787066,0.25733745,-0.06350958,-24.072924,-1.2503593,17.251451,-199.80234,0.0,0.0,0.0,0.0,1001.13995,25.6,101.312706,9999999.0,101.312706,9999999.0,-4.130594,-4.0962763,-194.4134,-5.216379,-2.8560634,-0.24080123,0.058857847,-0.04350667,-199.8237
22:22:44.207;-0.41671535,-0.7381757,8.099544,0.19135356,-0.04783833,-0.0024744272,-24.07914,-1.2578875,17.24196,-199.78522,0.0,0.0,0.0,0.0,1001.07996,25.6,101.81738,9999999.0,101.81738,9999999.0,-4.112174,-4.09014,-194.56589,-5.2005925,-2.9330926,-0.23448656,0.05727918,-0.045602486,-199.80234
22:22:44.232;-0.42530963,-0.736108,8.111523,0.008248091,0.1963023,-0.12454474,-24.084112,-1.24551,17.252768,-199.81522,0.0,0.0,0.0,0.0,1001.13995,25.6,101.312706,9999999.0,101.312706,9999999.0,-4.1117077,-4.08464,-194.71501,-5.178225,-2.9891675,-0.23428862,0.061990436,-0.04566187,-199.78522
22:22:44.270;-0.41686216,-0.73445386,8.113444,-0.11382222,0.25733745,0.2416662,-24.088089,-1.235608,17.261414,-199.8392,0.0,0.0,0.0,0.0,1001.13995,25.6,101.312706,9999999.0,101.312706,9999999.0,-4.110501,-4.0772924,-194.86641,-5.165715,-2.929268,-0.23861386,0.07176926,-0.050394572,-199.81522
22:22:44.304;-0.42542708,-0.7254691,8.122643,-0.35796285,0.5014781,0.05856073,-24.09127,-1.2460864,17.268332,-199.81473,0.0,0.0,0.0,0.0,1001.16,25.6,101.1436,9999999.0,101.1436,9999999.0,-4.109611,-4.0704355,-195.0072,-5.096847,-2.9862869,-0.2507846,0.08881952,-0.042177923,-199.8392
22:22:44.326;-0.43227902,-0.72594273,8.107018,-0.2969277,-0.04783833,-0.12454474,-24.093817,-1.254469,17.273865,-199.79517,0.0,0.0,0.0,0.0,1001.19995,25.6,100.80804,9999999.0,100.80804,9999999.0,-4.097622,-4.0775023,-195.14343,-5.1096816,-3.04007,-0.257317,0.08776707,-0.040889587,-199.81473
22:22:44.351;-0.43009913,-0.7339831,8.109841,0.1303184,0.07423198,0.30270135,-24.095854,-1.2611753,17.278292,-199.77951,0.0,0.0,0.0,0.0,1001.07996,25.6,101.81738,9999999.0,101.81738,9999999.0,-4.096045,-4.0727744,-195.27959,-5.1642604,-3.0234585,-0.25405905,0.08962287,-0.044003207,-199.79517
22:22:44.387;-0.42069376,-0.7404154,8.1121,-0.35796285,-0.10887349,0.119595885,-24.097483,-1.2665402,17.281834,-199.767,0.0,0.0,0.0,0.0,1001.16,25.7,101.1436,9999999.0,101.1436,9999999.0,-4.1084614,-4.089369,-195.40173,-5.2081456,-2.9564342,-0.26730368,0.08559455,-0.032803256,-199.77951
22:22:44.415;-0.4208309,-0.75322264,8.113906,0.31342387,0.13526714,-0.1855799,-24.098785,-1.2708322,17.284666,-199.75696,0.0,0.0,0.0,0.0,1001.19995,25.6,100.80804,9999999.0,100.80804,9999999.0,-4.1055264,-4.0790954,-195.51813,-5.2965503,-2.9563196,-0.25915465,0.08911149,-0.029693764,-199.767
22:22:44.440;-0.41327918,-0.7404841,8.115351,-0.11382222,0.07423198,0.05856073,-24.099829,-1.2558657,17.305332,-199.79257,0.0,0.0,0.0,0.0,1001.07996,25.6,101.81738,9999999.0,101.81738,9999999.0,-4.1046615,-4.0786695,-195.6369,-5.206799,-2.903264,-0.26222783,0.09111576,-0.03470442,-199.75696
22:22:44.472;-0.41489923,-0.7456162,8.108846,-0.35796285,0.13526714,0.119595885,-24.100662,-1.2438926,17.321865,-199.82108,0.0,0.0,0.0,0.0,1001.25995,25.6,100.30336,9999999.0,100.30336,9999999.0,-4.113258,-4.085086,-195.7522,-5.2468038,-2.9167726,-0.27368265,0.09544431,-0.032830477,-199.79257
22:22:44.502;-0.40853384,-0.7420604,8.1036415,-0.17485738,0.013196826,0.05856073,-24.10133,-1.215914,17.353493,-199.88751,0.0,0.0,0.0,0.0,1001.16,25.6,101.1436,192.55618,102.22892,101.1436,-4.113034,-4.0878663,-195.86223,-5.2254543,-2.8740394,-0.27892837,0.09584021,-0.029242601,-199.82108
22:22:44.536;-0.41110298,-0.7238929,8.099478,-0.5410683,0.13526714,-0.12454474,-24.101864,-1.1935312,17.378794,-199.94064,0.0,0.0,0.0,0.0,1001.25995,25.6,100.30336,192.55618,102.22892,100.30336,-4.126152,-4.097005,-195.96944,-5.1007237,-2.8941364,-0.2973247,0.10043929,-0.027251536,-199.88751
22:22:44.567;-0.43614262,-0.73234326,8.088486,-0.11382222,-0.16990864,0.18063104,-24.102291,-1.1940249,17.380634,-199.93951,0.0,0.0,0.0,0.0,1001.19995,25.6,100.80804,9999999.0,100.80804,9999999.0,-4.1218443,-4.106048,-196.07935,-5.166073,-3.073931,-0.30085316,0.09517212,-0.031112423,-199.94064
22:22:44.598;-0.42552856,-0.7314421,8.087354,-0.11382222,0.013196826,-0.12454474,-24.102633,-1.19442,17.382107,-199.93863,0.0,0.0,0.0,0.0,1001.19995,25.6,100.80804,9999999.0,100.80804,9999999.0,-4.13049,-4.1074862,-196.18172,-5.1608243,-2.999707,-0.30426782,0.09556802,-0.025693491,-199.93951
22:22:44.632;-0.4323602,-0.7230597,8.109432,-0.2969277,-0.16990864,0.119595885,-24.102905,-1.213136,17.364885,-199.89429,0.0,0.0,0.0,0.0,1001.27997,25.6,100.136894,9999999.0,100.136894,9999999.0,-4.13699,-4.1207085,-196.28618,-5.0879903,-3.0398395,-0.31436336,0.08979113,-0.029928012,-199.93863
22:22:44.666;-0.4378255,-0.7316767,8.104111,-0.17485738,-0.16990864,0.18063104,-24.103125,-1.2281088,17.351109,-199.8588,0.0,0.0,0.0,0.0,1001.22,25.6,100.64157,9999999.0,100.64157,9999999.0,-4.147321,-4.1318,-196.38356,-5.1514697,-3.079902,-0.32048336,0.08384433,-0.025742156,-199.89429
22:22:44.699;-0.4192134,-0.7385703,8.107515,0.06928325,0.07423198,-0.0024744272,-24.1033,-1.240087,17.340086,-199.83041,0.0,0.0,0.0,0.0,1001.25995,25.6,100.30336,9999999.0,100.30336,9999999.0,-4.150955,-4.124563,-196.47263,-5.1982,-2.9477592,-0.3182663,0.08621975,-0.019961962,-199.8588
22:22:44.733;-0.42730808,-0.7364237,8.110239,-0.6631386,-0.16990864,-0.1855799,-24.10344,-1.2496697,17.331268,-199.80771,0.0,0.0,0.0,0.0,1001.19995,25.6,100.80804,9999999.0,100.80804,9999999.0,-4.1677914,-4.15017,-196.55942,-5.1811805,-3.0036473,-0.340813,0.08044285,-0.020046093,-199.83041
22:22:44.767;-0.4184609,-0.75002927,8.104756,-0.23589253,0.07423198,-0.0024744272,-24.121952,-1.2389357,17.324215,-199.83542,0.0,0.0,0.0,0.0,1001.16,25.6,101.1436,9999999.0,101.1436,9999999.0,-4.180862,-4.15356,-196.65039,-5.2802057,-2.9430907,-0.34906924,0.083040975,-0.02654139,-199.80771
22:22:44.802;-0.4190446,-0.74559087,8.092709,0.008248091,0.25733745,-0.0024744272,-24.136763,-1.2303486,17.318571,-199.85754,0.0,0.0,0.0,0.0,1001.19995,25.6,100.80804,9999999.0,100.80804,9999999.0,-4.1753597,-4.142564,-196.74019,-5.256865,-2.9516792,-0.34879705,0.09153311,-0.026623046,-199.83542
22:22:44.828;-0.4195116,-0.74204016,8.098393,-0.5410683,-0.16990864,0.05856073,-24.13021,-1.2418789,17.314056,-199.82947,0.0,0.0,0.0,0.0,1001.22,25.6,100.64157,9999999.0,100.64157,9999999.0,-4.179126,-4.159266,-196.82869,-5.2283115,-2.9530272,-0.36394697,0.08677567,-0.02669233,-199.85754
22:22:44.861;-0.41988516,-0.74686104,8.1029415,-0.11382222,0.1963023,-0.3076502,-24.12497,-1.251103,17.310446,-199.80698,0.0,0.0,0.0,0.0,1001.22,25.6,100.64157,9999999.0,100.64157,9999999.0,-4.1848326,-4.1540565,-196.91301,-5.259147,-2.95385,-0.3675893,0.09305734,-0.024818387,-199.82947
22:22:44.894;-0.4355069,-0.75071776,8.098918,-0.11382222,0.1963023,-0.06350958,-24.102375,-1.2584825,17.289156,-199.78668,0.0,0.0,0.0,0.0,1001.19995,25.6,100.80804,9999999.0,100.80804,9999999.0,-4.180421,-4.1517625,-197.00517,-5.288222,-3.0649147,-0.37134543,0.099535316,-0.034970842,-199.80698
22:22:44.918;-0.44034287,-0.75380313,8.118684,-0.35796285,-0.29197896,-0.06350958,-24.084301,-1.2643859,17.272125,-199.77045,0.0,0.0,0.0,0.0,1001.16,25.6,101.1436,9999999.0,101.1436,9999999.0,-4.1830835,-4.1681156,-197.09657,-5.2968464,-3.0913084,-0.37993655,0.09252782,-0.03649507,-199.78668
22:22:44.942;-0.4365502,-0.7562714,8.119173,-0.23589253,-0.29197896,-0.0024744272,-24.069841,-1.2691088,17.258501,-199.75745,0.0,0.0,0.0,0.0,1001.19995,25.6,100.80804,9999999.0,100.80804,9999999.0,-4.1965795,-4.1808047,-197.18732,-5.3139067,-3.0644655,-0.38559797,0.08552033,-0.0380193,-199.77045
22:22:44.986;-0.43351606,-0.75824606,8.111903,-0.23589253,0.07423198,0.05856073,-24.076674,-1.272887,17.2476,-199.74933,0.0,0.0,0.0,0.0,1001.25995,25.6,100.30336,9999999.0,100.30336,9999999.0,-4.214011,-4.187447,-197.2761,-5.3325415,-3.045837,-0.39597726,0.088786535,-0.038128175,-199.75745
22:22:45.012;-0.43875018,-0.7674872,8.106088,-0.11382222,0.07423198,0.119595885,-24.082138,-1.2759095,17.23888,-199.74283,0.0,0.0,0.0,0.0,1001.19995,25.6,100.80804,9999999.0,100.80804,9999999.0,-4.2146144,-4.1901183,-197.36143,-5.4008026,-3.0844016,-0.39893663,0.09071656,-0.036605597,-199.74933
22:22:45.048;-0.4276146,-0.75955725,8.093774,-0.23589253,-0.16990864,-0.12454474,-24.08651,-1.2783276,17.250303,-199.73767,0.0,0.0,0.0,0.0,1001.25995,25.6,100.30336,9999999.0,100.30336,9999999.0,-4.2217135,-4.203495,-197.44072,-5.3537765,-3.0110643,-0.40742877,0.08459985,-0.032300144,-199.74283
22:22:45.075;-0.41870612,-0.7532133,8.099245,-0.35796285,0.07423198,0.18063104,-24.090008,-1.2802621,17.259443,-199.73352,0.0,0.0,0.0,0.0,1001.19995,25.6,100.80804,9999999.0,100.80804,9999999.0,-4.2353687,-4.207558,-197.52173,-5.3060637,-2.9466891,-0.41745174,0.08667835,-0.035787396,-199.73767
22:22:45.100;-0.4192408,-0.763461,8.111284,-0.23589253,0.3183726,0.119595885,-24.092806,-1.2634097,17.229954,-199.77383,0.0,0.0,0.0,0.0,1001.19995,25.6,100.80804,9999999.0,100.80804,9999999.0,-4.2363534,-4.2030535,-197.59677,-5.3699017,-2.945767,-0.42311317,0.09431929,-0.03145225,-199.73352
22:22:45.131;-0.41966856,-0.7563363,8.113254,-0.6021035,-0.10887349,0.119595885,-24.095045,-1.2499278,17.206364,-199.80609,0.0,0.0,0.0,0.0,1001.16,25.6,101.1436,9999999.0,101.1436,9999999.0,-4.24425,-4.2217445,-197.66737,-5.318783,-2.948299,-0.4423805,0.09083534,-0.02762518,-199.77383
22:22:45.157;-0.42767218,-0.75063646,8.122491,-1.0903847,-0.3530141,-0.0024744272,-24.078436,-1.2575423,17.20589,-199.78595,0.0,0.0,0.0,0.0,1001.25995,25.6,100.30336,9999999.0,100.30336,9999999.0,-4.2684097,-4.2513695,-197.7344,-5.272705,-3.001237,-0.46854973,0.082363,-0.02475488,-199.80609
22:22:45.179;-0.41109076,-0.75373805,8.122219,-1.0293496,-0.10887349,0.119595885,-24.06515,-1.2636338,17.205513,-199.76984,0.0,0.0,0.0,0.0,1001.25995,25.6,100.30336,9999999.0,100.30336,9999999.0,-4.2964544,-4.2707872,-197.79974,-5.295097,-2.88507,-0.49325413,0.07975004,-0.024814267,-199.78595
22:22:45.203;-0.42080995,-0.7562193,8.106679,-1.0293496,-0.04783833,0.05856073,-24.05452,-1.2685071,17.20521,-199.75696,0.0,0.0,0.0,0.0,1001.19995,25.6,100.80804,9999999.0,100.80804,9999999.0,-4.3160257,-4.2900043,-197.86064,-5.3222036,-2.95868,-0.5179585,0.07860192,-0.021943966,-199.76984
22:22:45.230;-0.42858532,-0.75820434,8.101908,-0.6631386,-0.2309438,0.18063104,-24.027617,-1.2724057,17.223368,-199.7443,0.0,0.0,0.0,0.0,1001.25995,25.6,100.30336,9999999.0,100.30336,9999999.0,-4.3278794,-4.3075047,-197.91858,-5.338943,-3.0149357,-0.5352001,0.07259738,-0.020421388,-199.75696
22:22:45.270;-0.4194827,-0.7597924,8.113414,-1.0903847,0.1963023,-0.0024744272,-24.006094,-1.2755246,17.237894,-199.73416,0.0,0.0,0.0,0.0,1001.19995,25.6,100.80804,9999999.0,100.80804,9999999.0,-4.3709545,-4.334777,-197.96803,-5.342849,-2.946822,-0.5788155,0.08044947,-0.013196146,-199.7443
22:22:45.301;-0.42752352,-0.7763857,8.114958,-0.9683144,-0.29197896,-0.06350958,-23.988876,-1.2780197,17.212715,-199.72604,0.0,0.0,0.0,0.0,1001.19995,25.6,100.80804,9999999.0,100.80804,9999999.0,-4.386649,-4.367828,-198.01636,-5.457526,-3.0020652,-0.60883325,0.071398124,-0.013272854,-199.73416
22:22:45.335;-0.41863328,-0.78199893,8.123854,-0.9683144,-0.04783833,-0.06350958,-23.975101,-1.2800157,17.192572,-199.71954,0.0,0.0,0.0,0.0,1001.13995,25.6,101.312706,9999999.0,101.312706,9999999.0,-4.4225574,-4.3944273,-198.06567,-5.491087,-2.9363718,-0.64175594,0.06977162,-0.015432179,-199.72604
22:22:45.372;-0.41152108,-0.79415095,8.115648,-1.2734902,0.1963023,0.18063104,-23.96408,-1.2632126,17.176456,-199.75821,0.0,0.0,0.0,0.0,1001.19995,25.6,100.80804,9999999.0,100.80804,9999999.0,-4.4643497,-4.4257255,-198.11617,-5.5817184,-2.8890417,-0.6888751,0.0770348,-0.017782034,-199.71954
22:22:45.404;-0.42881566,-0.78854966,8.116745,-1.5176308,-0.16990864,-0.0024744272,-23.955265,-1.24977,17.163565,-199.78915,0.0,0.0,0.0,0.0,1001.19995,25.6,100.80804,9999999.0,100.80804,9999999.0,-4.495629,-4.4712453,-198.16078,-5.5412474,-3.010036,-0.7374393,0.071597725,-0.01200184,-199.75821
22:22:45.440;-0.41200554,-0.80705297,8.117622,-1.3345253,0.25733745,0.119595885,-23.929811,-1.220616,17.153252,-199.85559,0.0,0.0,0.0,0.0,1001.22,25.6,100.64157,9999999.0,100.64157,9999999.0,-4.542311,-4.500212,-198.20518,-5.67043,-2.8912935,-0.78548217,0.080861874,-0.01209092,-199.78915
22:22:45.475;-0.42154178,-0.8141942,8.118324,-1.7007363,0.37940776,0.05856073,-23.909449,-1.1972928,17.145,-199.90887,0.0,0.0,0.0,0.0,1001.19995,25.6,100.80804,9999999.0,100.80804,9999999.0,-4.584599,-4.5386734,-198.24582,-5.719442,-2.957588,-0.84670866,0.094520554,-0.007785468,-199.85559
22:22:45.506;-0.42150933,-0.8199072,8.103563,-1.8228066,-0.04783833,0.119595885,-23.87476,-1.1970342,17.156801,-199.90533,0.0,0.0,0.0,0.0,1001.19995,25.6,100.80804,9999999.0,100.80804,9999999.0,-4.6186705,-4.587,-198.28493,-5.769698,-2.9624763,-0.90321565,0.09303757,-0.005970085,-199.90887
22:22:45.540;-0.42148337,-0.82447755,8.114738,-1.8838418,-0.16990864,0.18063104,-23.847008,-1.1968274,17.16624,-199.9025,0.0,0.0,0.0,0.0,1001.19995,25.6,100.80804,9999999.0,100.80804,9999999.0,-4.673904,-4.645249,-198.31921,-5.7937284,-2.9580963,-0.96726626,0.08726067,-0.0019038245,-199.90533
22:22:45.575;-0.41380113,-0.84345675,8.100695,-1.9448769,-0.10887349,0.18063104,-23.788006,-1.196662,17.173792,-199.89578,0.0,0.0,0.0,0.0,1001.16,25.6,101.1436,13.892244,100.44228,101.1436,-4.73588,-4.7029614,-198.34673,-5.9366198,-2.908555,-1.0333921,0.08355897,0.0042376313,-199.9025
22:22:45.611;-0.41531682,-0.8433172,8.112444,-1.9448769,0.13526714,0.119595885,-23.740805,-1.1965295,17.161434,-199.89038,0.0,0.0,0.0,0.0,1001.16,25.6,101.1436,13.892244,100.44228,101.1436,-4.7960587,-4.753666,-198.36717,-5.9270754,-2.91502,-1.1034076,0.08842859,0.010740349,-199.89578
22:22:45.647;-0.41652936,-0.8355441,8.121843,-2.738334,0.07423198,0.18063104,-23.703043,-1.1964236,17.151546,-199.88605,0.0,0.0,0.0,0.0,1001.13995,25.6,101.312706,13.892244,100.44228,101.312706,-4.872522,-4.830862,-198.38289,-5.8660517,-2.9204595,-1.2019876,0.09110094,0.015045801,-199.89038
22:22:45.672;-0.4174994,-0.84464854,8.129362,-3.16558,-0.41404927,0.30270135,-23.672834,-1.1963389,17.143637,-199.88257,0.0,0.0,0.0,0.0,1001.22,25.6,100.64157,13.892244,100.44228,100.64157,-4.9302826,-4.9003057,-198.39377,-5.924051,-2.9242404,-1.2811271,0.080749705,0.019561578,-199.88605
22:22:45.710;-0.41827542,-0.867255,8.143039,-3.7759316,-0.29197896,-0.06350958,-23.630268,-1.2146711,17.15571,-199.83304,0.0,0.0,0.0,0.0,1001.16,25.6,101.1436,13.892244,100.44228,101.1436,-5.064341,-5.032407,-198.3931,-6.0712905,-2.923964,-1.4246125,0.06965451,0.03106423,-199.88257
22:22:45.734;-0.4112348,-0.8853401,8.130996,-4.081107,-0.10887349,-0.1855799,-23.596214,-1.2293369,17.165369,-199.79327,0.0,0.0,0.0,0.0,1001.16,25.6,101.1436,9999999.0,101.1436,9999999.0,-5.151872,-5.1089625,-198.39294,-6.206276,-2.8783517,-1.522559,0.067041546,0.029539999,-199.83304
22:22:45.762;-0.41326374,-0.92279255,8.106039,-3.2876503,-0.47508442,0.2416662,-23.532171,-1.2226695,17.173096,-199.80136,0.0,0.0,0.0,0.0,1001.19995,25.6,100.80804,9999999.0,100.80804,9999999.0,-5.2299433,-5.196843,-198.39728,-6.4862475,-2.8998406,-1.6179008,0.053264096,0.024158182,-199.79327
22:22:45.787;-0.42254832,-0.93743163,8.109057,-3.3486855,-0.84129536,0.119595885,-23.480938,-1.2173356,17.179277,-199.80786,0.0,0.0,0.0,0.0,1001.25995,25.6,100.30336,9999999.0,100.30336,9999999.0,-5.303376,-5.27636,-198.396,-6.5854383,-2.963183,-1.6982692,0.033073008,0.02995817,-199.80136
22:22:45.812;-0.41465312,-0.9491429,8.126795,-3.4097207,-0.71922505,-0.12454474,-23.42155,-1.1946684,17.165821,-199.85565,0.0,0.0,0.0,0.0,1001.13995,25.6,101.312706,13.96136,100.44297,101.312706,-5.387429,-5.355325,-198.39195,-6.6529207,-2.901182,-1.7835122,0.015092382,0.032948066,-199.80786
22:22:45.846;-0.4006755,-0.9585119,8.133324,-4.325248,-0.3530141,0.18063104,-23.37404,-1.1765348,17.155056,-199.89407,0.0,0.0,0.0,0.0,1001.16,25.6,101.1436,13.892244,100.44228,101.1436,-5.5308394,-5.48835,-198.3932,-6.713237,-2.8009548,-1.9348959,0.002736888,0.028588999,-199.85565
22:22:45.874;-0.39715487,-0.9430227,8.138547,-5.118705,-0.3530141,0.119595885,-23.317633,-1.1804278,17.164845,-199.87756,0.0,0.0,0.0,0.0,1001.25995,25.6,100.30336,13.892244,100.44228,100.30336,-5.651074,-5.603244,-198.39024,-6.6016665,-2.7752352,-2.0782197,-0.0071475077,0.03364667,-199.89407
22:22:45.903;-0.4019998,-0.9612772,8.142725,-5.912162,-0.2309438,-0.0024744272,-23.272507,-1.1835423,17.172676,-199.86432,0.0,0.0,0.0,0.0,1001.19995,25.6,100.80804,14.030476,100.443665,100.80804,-5.787903,-5.7346196,-198.38373,-6.7246904,-2.8068917,-2.24376,-0.013613934,0.036995355,-199.87756
22:22:45.929;-0.41353717,-0.9988651,8.138407,-5.912162,-0.5361196,0.119595885,-23.236406,-1.1860338,17.178942,-199.85367,0.0,0.0,0.0,0.0,1001.22,25.6,100.64157,14.030476,100.443665,100.64157,-5.9103346,-5.863533,-198.37715,-6.9882603,-2.8872428,-2.3974762,-0.027553044,0.03693102,-199.86432
22:22:45.957;-0.39978275,-1.0442584,8.127291,-5.7900915,-0.29197896,0.05856073,-23.133924,-1.188027,17.147154,-199.83582,0.0,0.0,0.0,0.0,1001.22,25.6,100.64157,14.030476,100.443665,100.64157,-6.0570755,-6.000096,-198.36708,-7.312951,-2.7931933,-2.565389,-0.036020435,0.040399298,-199.85367
22:22:45.992;-0.3887792,-1.0729115,8.103075,-5.606986,-0.16990864,0.05856073,-23.051939,-1.1896216,17.121723,-199.82144,0.0,0.0,0.0,0.0,1001.16,25.6,101.1436,14.030476,100.443665,101.1436,-6.2175984,-6.1533713,-198.35492,-7.533975,-2.723169,-2.7560265,-0.04179733,0.04239036,-199.83582
22:22:46.034;-0.39529926,-1.095834,8.114347,-6.5225134,-0.5361196,0.05856073,-22.94955,-1.1724973,17.119778,-199.85092,0.0,0.0,0.0,0.0,1001.25995,25.6,100.30336,20.734692,100.510704,100.30336,-6.4524145,-6.4007125,-198.3403,-7.6822,-2.7639697,-3.029972,-0.06431435,0.044849914,-199.82144
22:22:46.070;-0.39285386,-1.0988492,8.14635,-8.170463,-0.04783833,-0.1855799,-22.867641,-1.1587979,17.118221,-199.8747,0.0,0.0,0.0,0.0,1001.19995,25.6,100.80804,20.734692,100.510704,100.80804,-6.7144194,-6.636543,-198.3245,-7.673364,-2.736181,-3.3241086,-0.06603653,0.0469581,-199.85092
22:22:46.102;-0.39855897,-1.1472299,8.148968,-8.780814,-0.7802602,-0.06350958,-22.728514,-1.1478382,17.098577,-199.88452,0.0,0.0,0.0,0.0,1001.22,25.6,100.64157,13.892244,100.44228,100.64157,-6.939261,-6.8803997,-198.3153,-8.00412,-2.7727563,-3.6050947,-0.091004856,0.041019544,-199.8747
22:22:46.138;-0.38013875,-1.2089188,8.135739,-8.475638,-0.71922505,0.2416662,-22.525211,-1.1206706,17.064463,-199.9274,0.0,0.0,0.0,0.0,1001.25995,25.6,100.30336,13.892244,100.44228,100.30336,-7.2189755,-7.1535983,-198.30879,-8.442863,-2.6461616,-3.9186933,-0.117616184,0.03866969,-199.88452
22:22:46.175;-0.36540258,-1.2735928,8.125156,-8.292533,-0.2309438,0.05856073,-22.36257,-1.0989364,17.03717,-199.96228,0.0,0.0,0.0,0.0,1001.33997,25.6,99.632225,9999999.0,99.632225,9999999.0,-7.489206,-7.3986745,-198.29451,-8.899596,-2.5439365,-4.2255173,-0.1261611,0.04761134,-199.9274
22:22:46.210;-0.37659797,-1.340655,8.093706,-7.8042517,-0.9023305,0.2416662,-22.195656,-1.0815492,17.015337,-199.98593,0.0,0.0,0.0,0.0,1001.19995,25.6,100.80804,13.892244,100.44228,100.80804,-7.7062907,-7.63568,-198.27919,-9.395188,-2.628275,-4.4986663,-0.15774266,0.049660966,-199.96228
22:22:46.233;-0.36256993,-1.3943046,8.068545,-7.6821814,-0.71922505,0.30270135,-22.062124,-1.0676394,16.99787,-200.0051,0.0,0.0,0.0,0.0,1001.16,25.6,101.1436,13.892244,100.44228,101.1436,-7.8520155,-7.761894,-198.2592,-9.794617,-2.535397,-4.6753564,-0.17428485,0.05521929,-199.98593
22:22:46.267;-0.37433183,-1.4295629,8.071402,-8.048392,-0.84129536,-0.0024744272,-21.9553,-1.0565115,16.983896,-200.02063,0.0,0.0,0.0,0.0,1001.32,25.6,99.79868,9999999.0,99.79868,9999999.0,-8.075493,-7.9943094,-198.22992,-10.033195,-2.6146986,-4.949002,-0.20288889,0.06551114,-200.0051
22:22:46.304;-0.36841848,-1.4884154,8.066025,-8.231498,-0.5361196,-0.06350958,-21.79624,-1.0660092,16.954317,-199.97565,0.0,0.0,0.0,0.0,1001.33997,25.6,99.632225,13.96136,100.44297,99.632225,-8.33372,-8.237397,-198.20161,-10.444472,-2.5718267,-5.2453356,-0.22218919,0.06542206,-200.02063
22:22:46.345;-0.36368778,-1.5584817,8.054062,-7.560111,-0.5361196,-0.06350958,-21.613792,-1.0368073,16.912254,-200.02927,0.0,0.0,0.0,0.0,1001.22,25.6,100.64157,25.641905,100.55978,100.64157,-8.587819,-8.487847,-198.17548,-10.940653,-2.5384576,-5.54774,-0.24363397,0.06288168,-199.97565
22:22:46.379;-0.36756468,-1.6145347,8.029169,-7.3770056,-0.3530141,-0.0024744272,-21.467834,-1.0134459,16.878603,-200.07285,0.0,0.0,0.0,0.0,1001.22,25.6,100.64157,20.734692,100.510704,100.64157,-8.798282,-8.68582,-198.1531,-11.358036,-2.5697274,-5.8059354,-0.25598946,0.060658842,-200.02927
22:22:46.413;-0.34002042,-1.6670386,8.024577,-6.9497595,-0.3530141,0.3637365,-21.277468,-1.0131567,16.833282,-200.04947,0.0,0.0,0.0,0.0,1001.16,25.6,101.1436,20.734692,100.510704,101.1436,-8.978181,-8.857893,-198.13213,-11.725562,-2.375646,-6.0422273,-0.26799193,0.06057471,-200.07285
22:22:46.449;-0.32564646,-1.7243645,8.020904,-6.705619,0.13526714,0.48580682,-21.125174,-1.0129254,16.797026,-200.03046,0.0,0.0,0.0,0.0,1001.13995,25.6,101.312706,13.96136,100.44297,101.312706,-9.159776,-9.017269,-198.09828,-12.123302,-2.273038,-6.2836294,-0.26312232,0.073669225,-200.04947
22:22:46.478;-0.34479308,-1.7549025,8.048611,-7.132865,-0.3530141,0.30270135,-20.94814,-1.0127404,16.76802,-200.00781,0.0,0.0,0.0,0.0,1001.22,25.6,100.64157,13.96136,100.44297,100.64157,-9.271443,-9.14329,-198.0514,-12.289218,-2.3967428,-6.476217,-0.2726537,0.08727182,-200.03046
22:22:46.514;-0.3524489,-1.7946557,8.040131,-7.926322,-0.59715474,-0.24661505,-20.80651,-1.0125923,16.744816,-199.98941,0.0,0.0,0.0,0.0,1001.22,25.6,100.64157,13.96136,100.44297,100.64157,-9.507023,-9.388117,-197.99403,-12.571163,-2.449812,-6.777417,-0.29534557,0.09847177,-200.00781
22:22:46.549;-0.32026637,-1.8417811,8.033346,-8.536674,-0.3530141,0.30270135,-20.656408,-1.0124738,16.707853,-199.96951,0.0,0.0,0.0,0.0,1001.16,25.6,101.1436,25.641905,100.55978,101.1436,-9.751221,-9.612812,-197.94589,-12.902964,-2.2253325,-7.076201,-0.30770108,0.08984024,-199.98941
22:22:46.582;-0.3251661,-1.9101273,8.035581,-8.719779,-0.16990864,0.05856073,-20.536327,-1.012379,16.678282,-199.9534,0.0,0.0,0.0,0.0,1001.13995,25.6,101.312706,25.641905,100.55978,101.312706,-9.969773,-9.820962,-197.88853,-13.360994,-2.2545016,-7.3639536,-0.31330806,0.09982938,-199.96951
22:22:46.616;-0.33674735,-1.9571428,8.04503,-9.269095,-0.84129536,0.05856073,-20.366661,-0.9939032,16.636225,-199.98178,0.0,0.0,0.0,0.0,1001.16,25.6,101.1436,20.665579,100.51002,101.1436,-10.206618,-10.077099,-197.83005,-13.661432,-2.3290272,-7.679103,-0.3419121,0.10182045,-199.9534
22:22:46.650;-0.323028,-2.0100782,8.037266,-9.818412,-1.2685415,0.05856073,-20.230928,-0.9791226,16.60258,-200.00482,0.0,0.0,0.0,0.0,1001.1,25.6,101.64828,20.665579,100.51002,101.64828,-10.483315,-10.360575,-197.77136,-14.030475,-2.2328544,-8.012929,-0.3850425,0.10381151,-199.98178
22:22:46.684;-0.33503684,-2.060088,8.038716,-10.367728,-0.84129536,-0.12454474,-20.048742,-0.9672981,16.557264,-200.0134,0.0,0.0,0.0,0.0,1001.16,25.6,101.1436,13.96136,100.44297,101.1436,-10.786055,-10.644605,-197.71234,-14.361943,-2.3119602,-8.365432,-0.41364652,0.10580257,-200.00482
22:22:46.719;-0.3216596,-2.1154184,8.032215,-11.283256,-1.1464711,-0.12454474,-19.902994,-0.9578385,16.521011,-200.02039,0.0,0.0,0.0,0.0,1001.13995,25.6,101.312706,13.96136,100.44297,101.312706,-11.113597,-10.975004,-197.65895,-14.743452,-2.2177086,-8.760345,-0.45377302,0.10144351,-200.0134
22:22:46.757;-0.2956349,-2.1903286,7.9963684,-10.917045,-0.41404927,0.48580682,-19.712795,-0.9502708,16.47361,-200.01578,0.0,0.0,0.0,0.0,1001.1,25.6,101.64828,9999999.0,101.64828,9999999.0,-11.468225,-11.295122,-197.61139,-15.308495,-2.0421674,-9.175193,-0.4695069,0.09671081,-200.02039
22:22:46.797;-0.29779947,-2.2502568,7.983014,-11.22222,0.013196826,0.30270135,-19.560637,-0.9442166,16.435688,-200.01202,0.0,0.0,0.0,0.0,1001.1,25.6,101.64828,9999999.0,101.64828,9999999.0,-11.823765,-11.627898,-197.54564,-15.731714,-2.0563192,-9.624082,-0.46897903,0.11614308,-200.01578
22:22:46.836;-0.3225155,-2.2981994,7.979992,-12.015677,-1.2685415,0.05856073,-19.346909,-0.9393733,16.368551,-199.99585,0.0,0.0,0.0,0.0,1001.13995,25.6,101.312706,20.734692,100.510704,101.312706,-12.187429,-12.037889,-197.46927,-16.053717,-2.2240784,-10.104709,-0.5197207,0.12825114,-200.01202
22:22:46.871;-0.30398107,-2.382522,7.95459,-12.381888,-0.9023305,0.05856073,-19.102327,-0.8986986,16.278042,-200.08203,0.0,0.0,0.0,0.0,1001.13995,25.6,101.312706,13.892244,100.44228,101.312706,-12.555075,-12.376854,-197.3921,-16.662281,-2.096535,-10.5380745,-0.55130225,0.13030076,-199.99585
22:22:46.905;-0.28149208,-2.4882874,7.911284,-11.405326,-0.29197896,0.30270135,-18.906662,-0.8661589,16.205633,-200.15262,0.0,0.0,0.0,0.0,1001.19995,25.6,100.80804,13.892244,100.44228,100.80804,-12.858327,-12.649769,-197.31625,-17.449234,-1.9439768,-10.925856,-0.5612295,0.13229182,-200.08203
22:22:46.940;-0.28648522,-2.5805612,7.8766394,-10.245658,-0.29197896,0.2416662,-18.658129,-0.8585271,16.129307,-200.14111,0.0,0.0,0.0,0.0,1001.1,25.6,101.64828,13.96136,100.44297,101.64828,-13.110774,-12.898166,-197.23296,-18.128736,-1.9795719,-11.284453,-0.5714488,0.14288637,-200.15262
22:22:46.974;-0.29047975,-2.6313958,7.8642464,-10.001517,-0.6581899,-0.06350958,-18.459303,-0.8524217,16.068245,-200.13168,0.0,0.0,0.0,0.0,1001.22,25.6,100.64157,13.96136,100.44297,100.64157,-13.333424,-13.128164,-197.14328,-18.488615,-2.0061321,-11.614504,-0.5931691,0.15086135,-200.14111
22:22:47.005;-0.28601393,-2.6720636,7.8773165,-11.6494665,-1.2075063,-0.0024744272,-18.245043,-0.86593735,16.000996,-200.05832,0.0,0.0,0.0,0.0,1001.19995,25.6,100.80804,9999999.0,100.80804,9999999.0,-13.594031,-13.398221,-197.05713,-18.725965,-1.9692947,-11.975637,-0.63060176,0.14889255,-200.13168
22:22:47.042;-0.25945693,-2.7505665,7.8724494,-12.259818,-0.59715474,-0.36868536,-18.073635,-0.8767499,15.947197,-199.99838,0.0,0.0,0.0,0.0,1001.22,25.6,100.64157,9999999.0,100.64157,9999999.0,-13.959784,-13.737883,-196.97133,-19.249296,-1.7820797,-12.429251,-0.6526965,0.148801,-200.05832
22:22:47.079;-0.26119566,-2.8133688,7.8455715,-12.564994,-0.41404927,-0.0024744272,-17.84451,-0.8853999,15.867357,-199.93509,0.0,0.0,0.0,0.0,1001.13995,25.6,101.312706,13.892244,100.44228,101.312706,-14.31308,-14.077731,-196.89941,-19.71741,-1.7949567,-12.8941555,-0.6680163,0.13515964,-199.99838
22:22:47.112;-0.24726376,-2.9325638,7.8087463,-11.6494665,-0.84129536,0.119595885,-17.661207,-0.8923199,15.803486,-199.88327,0.0,0.0,0.0,0.0,1001.16,25.6,101.1436,20.665579,100.51002,101.1436,-14.584404,-14.353883,-196.82776,-20.57415,-1.6979496,-13.278588,-0.6957791,0.13507798,-199.93509
22:22:47.147;-0.25910258,-3.0279198,7.7869477,-10.8560095,-0.71922505,-0.12454474,-17.440966,-0.89785594,15.752389,-199.82864,0.0,0.0,0.0,0.0,1001.13995,25.6,101.312706,20.665579,100.51002,101.312706,-14.863918,-14.626835,-196.7524,-21.237642,-1.776284,-13.658548,-0.720952,0.13926384,-199.88327
22:22:47.183;-0.23792785,-3.1195273,7.7541857,-10.428763,-0.2309438,-0.1855799,-17.264772,-0.90228474,15.711511,-199.78397,0.0,0.0,0.0,0.0,1001.16,25.6,101.1436,20.665579,100.51002,101.1436,-15.150559,-14.888535,-196.68195,-21.905706,-1.6305718,-14.044413,-0.7294969,0.13465568,-199.82864
22:22:47.217;-0.22098807,-3.1928134,7.7279763,-9.6963415,0.1963023,0.119595885,-17.068619,-0.9058278,15.642009,-199.7378,0.0,0.0,0.0,0.0,1001.06,25.6,101.98649,13.96136,100.44297,101.98649,-15.353138,-15.070005,-196.61804,-22.439705,-1.5139205,-14.364392,-0.72301894,0.12853155,-199.78397
22:22:47.256;-0.24574345,-3.2897494,7.707009,-8.841849,-0.9023305,0.05856073,-16.911695,-0.90866226,15.586407,-199.7001,0.0,0.0,0.0,0.0,1001.13995,25.6,101.312706,20.734692,100.510704,101.312706,-15.568637,-15.325346,-196.54991,-23.104784,-1.6797644,-14.709225,-0.7582098,0.13319579,-199.7378
22:22:47.293;-0.24256344,-3.3443139,7.6902347,-9.08599,-0.9633657,-0.42972052,-16.712557,-0.9293298,15.523525,-199.59286,0.0,0.0,0.0,0.0,1001.16,25.6,101.1436,20.734692,100.510704,101.1436,-15.818151,-15.569857,-196.48027,-23.492746,-1.6568176,-15.045406,-0.79385436,0.13536254,-199.7001
22:22:47.331;-0.21703508,-3.4032884,7.6997995,-10.184623,-0.3530141,-0.3076502,-16.516445,-0.9090638,15.454821,-199.62524,0.0,0.0,0.0,0.0,1001.13995,25.6,101.312706,20.665579,100.51002,101.312706,-16.114471,-15.834865,-196.42587,-23.836874,-1.4768193,-15.432422,-0.8072689,0.11903316,-199.59286
22:22:47.365;-0.2119353,-3.4581294,7.707452,-11.466361,-0.71922505,0.05856073,-16.359556,-0.89285105,15.399857,-199.6517,0.0,0.0,0.0,0.0,1001.19995,25.6,100.80804,23.15374,100.5349,100.80804,-16.383354,-16.108395,-196.38347,-24.156424,-1.4371326,-15.822278,-0.83172256,0.10857305,-199.62524
22:22:47.404;-0.22317836,-3.5403094,7.667605,-11.283256,-0.84129536,-0.12454474,-16.160444,-0.87988085,15.319085,-199.65915,0.0,0.0,0.0,0.0,1001.32,25.6,99.79868,25.641905,100.55978,99.79868,-16.712965,-16.441135,-196.3402,-24.774624,-1.5137349,-16.262325,-0.86453307,0.11085692,-199.6517
22:22:47.441;-0.21684991,-3.6060536,7.6357274,-10.794974,-0.7802602,0.05856073,-16.001156,-0.8695047,15.254468,-199.66522,0.0,0.0,0.0,0.0,1001.25995,25.6,100.30336,25.641905,100.55978,100.30336,-17.00915,-16.72668,-196.30244,-25.270605,-1.4710162,-16.66174,-0.8934027,0.106248766,-199.65915
22:22:47.479;-0.2041257,-3.6816332,7.610225,-10.794974,-0.47508442,0.18063104,-15.818525,-0.87960374,15.184375,-199.59293,0.0,0.0,0.0,0.0,1001.19995,25.6,100.80804,23.222857,100.53559,100.80804,-17.310322,-17.009472,-196.26334,-25.80844,-1.3831657,-17.071949,-0.9114559,0.10853264,-199.66522
22:22:47.527;-0.21693069,-3.7650812,7.597485,-11.405326,-0.29197896,-0.06350958,-15.598821,-0.906083,15.1098995,-199.45123,0.0,0.0,0.0,0.0,1001.13995,25.6,101.312706,20.665579,100.51002,101.312706,-17.744013,-17.432465,-196.21507,-26.35232,-1.4655197,-17.63081,-0.9257629,0.11720293,-199.59293
22:22:47.569;-0.21185178,-3.8471625,7.57197,-11.405326,-0.7802602,-0.0024744272,-15.423057,-0.9272664,15.05032,-199.33502,0.0,0.0,0.0,0.0,1001.13995,25.6,101.312706,23.15374,100.5349,101.312706,-18.09176,-17.790619,-196.16754,-26.925137,-1.4288627,-18.109833,-0.9585338,0.114535525,-199.45123
22:22:47.605;-0.19246575,-3.935812,7.5592194,-11.832572,-0.59715474,0.05856073,-15.2456455,-0.92581314,15.002656,-199.30054,0.0,0.0,0.0,0.0,1001.19995,25.6,100.80804,25.641905,100.55978,100.80804,-18.402193,-18.081093,-196.11874,-27.496758,-1.2937104,-18.535805,-0.9800314,0.11444645,-199.33502
22:22:47.643;-0.19227983,-4.0067315,7.5260344,-12.748099,-0.41404927,-0.24661505,-15.103717,-0.9246505,14.964525,-199.27234,0.0,0.0,0.0,0.0,1001.25995,25.6,100.30336,25.641905,100.55978,100.30336,-18.754658,-18.420822,-196.06804,-28.022318,-1.2919039,-19.020233,-0.99576527,0.116671756,-199.30054
22:22:47.683;-0.21511543,-4.094113,7.4994864,-13.419486,-0.84129536,-0.06350958,-14.898173,-0.9237204,14.91562,-199.22769,0.0,0.0,0.0,0.0,1001.13995,25.6,101.312706,9999999.0,101.312706,9999999.0,-19.137718,-18.815964,-196.0272,-28.621061,-1.4422115,-19.543592,-1.0285758,0.10705377,-199.27234
22:22:47.726;-0.20273812,-4.1946635,7.4629254,-13.053275,-0.71922505,0.05856073,-14.733739,-0.9229763,14.876496,-199.1911,0.0,0.0,0.0,0.0,1001.1,25.6,101.64828,20.665579,100.51002,101.64828,-19.576307,-19.24222,-195.98897,-29.329874,-1.3566042,-20.104883,-1.0595025,0.10432286,-199.22769
22:22:47.746;-0.20049772,-4.275104,7.4489994,-12.931205,-0.5361196,0.2416662,-14.546991,-0.92238104,14.771597,-199.14752,0.0,0.0,0.0,0.0,1001.1,25.6,101.64828,20.734692,100.510704,101.64828,-19.707691,-19.350794,-195.94963,-29.843271,-1.3373055,-20.363506,-1.0702249,0.105494075,-199.1911
22:22:47.789;-0.18338251,-4.3701024,7.4072127,-12.687064,-0.41404927,0.05856073,-14.397593,-0.92190486,14.687677,-199.11188,0.0,0.0,0.0,0.0,1001.13995,25.6,101.312706,20.665579,100.51002,101.312706,-20.096617,-19.736158,-195.90025,-30.532045,-1.2215263,-20.896362,-1.0876149,0.11564405,-199.14752
22:22:47.826;-0.16969034,-4.4690857,7.3737836,-12.198783,-0.47508442,-0.12454474,-14.222874,-0.90312386,14.620542,-199.14233,0.0,0.0,0.0,0.0,1001.19995,25.6,100.80804,20.665579,100.51002,100.80804,-20.40801,-20.039625,-195.84903,-31.212397,-1.1274482,-21.347717,-1.105193,0.1178108,-199.11188
22:22:47.863;-0.15873662,-4.5559335,7.331717,-10.97808,-0.9633657,-0.0024744272,-14.027899,-0.9064991,14.530033,-199.07825,0.0,0.0,0.0,0.0,1001.19995,25.6,100.80804,20.734692,100.510704,100.80804,-20.69543,-20.339413,-195.8042,-31.850824,-1.0535175,-21.775862,-1.1427643,0.11295356,-199.14233
22:22:47.913;-0.14997363,-4.648396,7.282741,-9.6963415,-0.2309438,-0.12454474,-13.871919,-0.9091993,14.457626,-199.0257,0.0,0.0,0.0,0.0,1001.25995,25.6,100.30336,25.641905,100.55978,100.30336,-21.058617,-20.668652,-195.75912,-32.54359,-0.9944683,-22.26068,-1.1543115,0.112829834,-199.07825
22:22:47.952;-0.1353018,-4.7147045,7.258883,-9.391166,-0.3530141,-0.12454474,-13.691935,-0.8929594,14.381301,-199.04419,0.0,0.0,0.0,0.0,1001.19995,25.6,100.80804,25.641905,100.55978,100.80804,-21.264997,-20.870756,-195.71854,-32.99951,-0.89555544,-22.617544,-1.167726,0.108097136,-199.0257
22:22:47.990;-0.12356433,-4.81372,7.216812,-8.96392,-0.3530141,-0.1855799,-13.5111475,-0.8799675,14.26504,-199.04929,0.0,0.0,0.0,0.0,1001.22,25.6,100.64157,9999999.0,100.64157,9999999.0,-21.461159,-21.061403,-195.68376,-33.699997,-0.81605756,-22.958174,-1.1811405,0.10336444,-199.04419
22:22:48.023;-0.11417436,-4.8852715,7.167833,-8.353568,-0.41404927,0.18063104,-13.366518,-0.869574,14.172032,-199.05344,0.0,0.0,0.0,0.0,1001.19995,25.6,100.80804,9999999.0,100.80804,9999999.0,-21.595793,-21.19235,-195.65578,-34.273197,-0.75410366,-23.23384,-1.1948042,0.0972403,-199.04929
22:22:48.065;-0.10666238,-4.9425125,7.159295,-8.170463,0.3183726,0.05856073,-13.214014,-0.8612592,14.097626,-199.04651,0.0,0.0,0.0,0.0,1001.19995,25.6,100.80804,23.15374,100.5349,100.80804,-21.797134,-21.362137,-195.621,-34.61679,-0.7024417,-23.577,-1.1814325,0.1048268,-199.05344
22:22:48.103;-0.115975685,-4.9959664,7.1294804,-8.597709,-0.2309438,0.119595885,-13.092011,-0.85460734,14.0381,-199.04083,0.0,0.0,0.0,0.0,1001.1,25.6,101.64828,20.734692,100.510704,101.64828,-21.955418,-21.540174,-195.5846,-35.017197,-0.76323855,-23.903713,-1.1902083,0.10705211,-199.04651
22:22:48.139;-0.115764886,-5.054053,7.097967,-8.719779,-0.10887349,0.119595885,-12.939209,-0.84928584,13.97208,-199.02032,0.0,0.0,0.0,0.0,1001.13995,25.6,101.312706,20.734692,100.510704,101.312706,-22.125982,-21.702526,-195.5446,-35.448875,-0.7611718,-24.217625,-1.1941278,0.11135756,-199.04083
22:22:48.165;-0.1079348,-5.1158447,7.080418,-8.536674,-0.04783833,0.546842,-12.816967,-0.84502864,13.919264,-199.00354,0.0,0.0,0.0,0.0,1001.13995,25.6,101.312706,20.734692,100.510704,101.312706,-22.202915,-21.774235,-195.50194,-35.84624,-0.707926,-24.439579,-1.1953716,0.114467055,-199.02032
22:22:48.204;-0.10933218,-5.17294,7.0587177,-9.08599,0.13526714,0.30270135,-12.719173,-0.8416229,13.858611,-198.9899,0.0,0.0,0.0,0.0,1001.06,25.6,101.98649,20.734692,100.510704,101.98649,-22.410662,-21.971594,-195.4389,-36.23233,-0.7157754,-24.793932,-1.1900963,0.1357939,-199.00354
22:22:48.236;-0.14109586,-5.2339387,7.041357,-8.841849,-0.6581899,0.119595885,-12.640939,-0.8388983,13.810089,-198.97885,0.0,0.0,0.0,0.0,1001.16,25.6,101.1436,23.15374,100.5349,101.1436,-22.550476,-22.139181,-195.36707,-36.61843,-0.921351,-25.085712,-1.2118165,0.14578304,-198.9899
22:22:48.266;-0.14352247,-5.290399,6.996823,-9.08599,-0.16990864,0.05856073,-12.504751,-0.8367186,13.771272,-198.94754,0.0,0.0,0.0,0.0,1001.13995,25.6,101.312706,23.15374,100.5349,101.312706,-22.705278,-22.274916,-195.29292,-37.087658,-0.93738246,-25.358292,-1.2169138,0.14937091,-198.97885
22:22:48.306;-0.13780232,-5.35089,6.968857,-8.841849,-0.10887349,-0.0024744272,-12.395802,-0.8349749,13.740217,-198.92203,0.0,0.0,0.0,0.0,1001.07996,25.6,101.81738,23.15374,100.5349,101.81738,-22.926271,-22.489985,-195.21733,-37.512688,-0.8985523,-25.711966,-1.2212688,0.15171334,-198.94754
22:22:48.351;-0.14854908,-5.4069448,6.9311614,-8.353568,-0.6581899,0.05856073,-12.253441,-0.8151799,13.678574,-198.96954,0.0,0.0,0.0,0.0,1001.13995,25.6,101.312706,23.15374,100.5349,101.312706,-23.159414,-22.743969,-195.14285,-37.951134,-0.96811914,-26.079523,-1.2502291,0.15160447,-198.92203
22:22:48.374;-0.1418236,-5.45945,6.8933434,-7.926322,-0.6581899,-0.06350958,-12.139553,-0.7993439,13.629259,-199.00836,0.0,0.0,0.0,0.0,1001.07996,25.6,101.81738,25.641905,100.55978,101.81738,-23.235209,-22.803822,-195.06949,-38.372925,-0.92401063,-26.26183,-1.2653675,0.15295137,-198.96954
22:22:48.419;-0.12878178,-5.5320997,6.8477664,-7.3159704,-0.5361196,0.05856073,-12.011642,-0.8050751,13.571407,-198.94113,0.0,0.0,0.0,0.0,1001.01996,25.6,102.32206,28.130066,100.58466,102.32206,-23.448954,-23.02038,-195.00117,-38.928726,-0.8381203,-26.591047,-1.2894928,0.15009344,-199.00836
22:22:48.465;-0.12600976,-5.5902195,6.818966,-7.1939,0.13526714,-0.24661505,-11.909314,-0.8096601,13.488326,-198.88632,0.0,0.0,0.0,0.0,1001.13995,25.6,101.312706,28.130066,100.58466,101.312706,-23.671078,-23.207933,-194.93025,-39.340263,-0.81874806,-26.921967,-1.2832706,0.15278722,-198.94113
22:22:48.503;-0.14677648,-5.6367154,6.772941,-6.339408,-0.29197896,-0.12454474,-11.827452,-0.813328,13.421861,-198.8418,0.0,0.0,0.0,0.0,1001.1,25.6,101.64828,28.130066,100.58466,101.64828,-23.775093,-23.32955,-194.86882,-39.761982,-0.95429224,-27.162865,-1.2943658,0.14341585,-198.88632
22:22:48.535;-0.14806697,-5.6892347,6.7361217,-5.912162,-0.47508442,-0.06350958,-11.743562,-0.8162624,13.387089,-198.79956,0.0,0.0,0.0,0.0,1001.13995,25.6,101.312706,28.130066,100.58466,101.312706,-23.846113,-23.402866,-194.81152,-40.17715,-0.9620776,-27.346142,-1.3090934,0.13955496,-198.8418
22:22:48.582;-0.14143792,-5.7312503,6.706666,-5.17974,0.37940776,0.119595885,-11.67645,-0.81860995,13.359271,-198.76532,0.0,0.0,0.0,0.0,1001.19995,25.6,100.80804,28.130066,100.58466,100.80804,-23.99373,-23.514008,-194.75757,-40.509594,-0.9185171,-27.599949,-1.2905024,0.13644299,-198.79956
22:22:48.641;-0.15145756,-5.7955084,6.67544,-3.7759316,-0.41404927,-0.24661505,-11.585959,-0.838888,13.337017,-198.63431,0.0,0.0,0.0,0.0,1001.16,25.6,101.1436,20.665579,100.51002,101.1436,-24.077486,-23.639103,-194.6972,-40.956684,-0.98154056,-27.818953,-1.3145173,0.14337955,-198.76532
22:22:48.688;-0.1288275,-5.8545766,6.650459,-2.6772988,-0.04783833,-0.06350958,-11.495168,-0.8367104,13.2824135,-198.61252,0.0,0.0,0.0,0.0,1001.16,25.6,101.1436,20.665579,100.51002,101.1436,-24.116697,-23.653229,-194.64679,-41.352993,-0.8330151,-27.944786,-1.3167657,0.13178864,-198.63431
22:22:48.751;-0.14136922,-5.886508,6.60749,-2.372123,0.1963023,-0.0024744272,-11.422534,-0.8349683,13.23873,-198.59485,0.0,0.0,0.0,0.0,1001.1,25.6,101.64828,20.665579,100.51002,101.64828,-24.160437,-23.683413,-194.60086,-41.690826,-0.91523415,-28.09423,-1.3043987,0.12778753,-198.61252
22:22:48.804;-0.14374116,-5.919715,6.5960994,-0.90727925,-0.16990864,-0.3076502,-11.346027,-0.83357465,13.222184,-198.57376,0.0,0.0,0.0,0.0,1001.19995,25.6,100.80804,20.665579,100.51002,100.80804,-24.094864,-23.640375,-194.55563,-41.89985,-0.92915535,-28.142317,-1.3134038,0.12765639,-198.59485
22:22:48.859;-0.13031583,-5.9386187,6.5869865,-0.7241738,0.013196826,-0.24661505,-11.284822,-0.8324597,13.190547,-198.55667,0.0,0.0,0.0,0.0,1001.25995,25.6,100.30336,20.734692,100.510704,100.30336,-24.047224,-23.582403,-194.52747,-42.031246,-0.84182876,-28.182146,-1.312678,0.110735625,-198.57376
22:22:48.908;-0.12723699,-5.976726,6.5643735,-0.17485738,-0.04783833,-0.0024744272,-11.235858,-0.83156776,13.165237,-198.54288,0.0,0.0,0.0,0.0,1001.13995,25.6,101.312706,20.734692,100.510704,101.312706,-23.96556,-23.505016,-194.51161,-42.311855,-0.82112527,-28.19089,-1.3150699,0.09840487,-198.55667
22:22:48.966;-0.12477393,-5.9842277,6.5462832,-0.17485738,-0.16990864,-0.1855799,-11.178287,-0.8124542,13.12659,-198.61859,0.0,0.0,0.0,0.0,1001.1,25.6,101.64828,20.734692,100.510704,101.64828,-23.893385,-23.441296,-194.49594,-42.42654,-0.80598617,-28.20103,-1.3249246,0.09826136,-198.54288
22:22:49.025;-0.11514203,-5.990229,6.547134,0.19135356,0.1963023,-0.06350958,-11.150629,-0.77876335,13.095672,-198.78055,0.0,0.0,0.0,0.0,1001.19995,25.6,100.80804,20.665579,100.51002,100.80804,-23.810637,-23.338135,-194.49265,-42.4522,-0.7433835,-28.189932,-1.313539,0.087497726,-198.61859
22:22:49.069;-0.107436515,-6.0026917,6.57846,-0.2969277,-0.04783833,-0.24661505,-11.128504,-0.7702107,13.070937,-198.81647,0.0,0.0,0.0,0.0,1001.19995,25.6,100.80804,20.665579,100.51002,100.80804,-23.731693,-23.272947,-194.49539,-42.37592,-0.6911841,-28.202997,-1.3156439,0.084703304,-198.78055
22:22:49.118;-0.13191788,-6.012662,6.580537,-0.48003316,0.013196826,-0.06350958,-11.074003,-0.74496853,13.06955,-198.92703,0.0,0.0,0.0,0.0,1001.19995,25.6,100.80804,20.665579,100.51002,100.80804,-23.678785,-23.221535,-194.51064,-42.412334,-0.84787613,-28.226519,-1.3149973,0.07261917,-198.81647
22:22:49.169;-0.13618009,-6.0129766,6.5898595,-1.0293496,-0.29197896,-0.06350958,-11.030402,-0.72477484,13.0684395,-199.0163,0.0,0.0,0.0,0.0,1001.1,25.6,101.64828,20.665579,100.51002,101.64828,-23.656012,-23.214977,-194.53096,-42.37308,-0.8745703,-28.279015,-1.3298882,0.06938018,-198.92703
22:22:49.217;-0.11660551,-6.028551,6.5896564,-1.0903847,-0.04783833,-0.1855799,-11.013922,-0.74541986,13.067552,-198.90378,0.0,0.0,0.0,0.0,1001.16,25.6,101.1436,20.665579,100.51002,101.1436,-23.652025,-23.196241,-194.55571,-42.449387,-0.7480066,-28.332443,-1.3322324,0.06626821,-199.0163
22:22:49.265;-0.13159163,-6.041011,6.5741706,-0.5410683,0.37940776,0.119595885,-10.982337,-0.7435359,13.048441,-198.90244,0.0,0.0,0.0,0.0,1001.19995,25.6,100.80804,20.665579,100.51002,100.80804,-23.608723,-23.135962,-194.58629,-42.57421,-0.8444101,-28.357874,-1.3144002,0.05754596,-198.90378
22:22:49.327;-0.1359191,-6.0509787,6.5541205,-0.17485738,-0.10887349,-0.12454474,-10.97547,-0.7420287,13.033153,-198.90787,0.0,0.0,0.0,0.0,1001.16,25.6,101.1436,20.665579,100.51002,101.1436,-23.5382,-23.091618,-194.60883,-42.70807,-0.87295634,-28.36889,-1.3212593,0.0650805,-198.90244
22:22:49.387;-0.11639672,-6.058953,6.5380807,0.06928325,0.07423198,0.119595885,-10.951575,-0.740823,13.039322,-198.90573,0.0,0.0,0.0,0.0,1001.13995,25.6,101.312706,20.665579,100.51002,101.312706,-23.482124,-23.023153,-194.63821,-42.81728,-0.74812037,-28.364803,-1.3168796,0.057732362,-198.90787
22:22:49.445;-0.108440265,-6.0729933,6.525249,0.8017051,0.3183726,-0.0024744272,-10.93246,-0.75825834,13.025858,-198.80804,0.0,0.0,0.0,0.0,1001.16,25.6,101.1436,20.665579,100.51002,101.1436,-23.376709,-22.90533,-194.66031,-42.940117,-0.69697493,-28.319107,-1.2987324,0.06454933,-198.90573
22:22:49.501;-0.1020751,-6.068903,6.5303063,1.4730918,0.13526714,-0.0024744272,-10.917168,-0.77220666,13.015086,-198.72964,0.0,0.0,0.0,0.0,1001.16,25.6,101.1436,20.734692,100.510704,101.1436,-23.222921,-22.764029,-194.68015,-42.899185,-0.65600044,-28.235142,-1.2910222,0.06440829,-198.80804
22:22:49.558;-0.112305865,-6.065631,6.5420136,2.0834434,0.07423198,-0.24661505,-10.904934,-0.7833653,13.006469,-198.66678,0.0,0.0,0.0,0.0,1001.16,25.6,101.1436,20.665579,100.51002,101.1436,-23.049004,-22.598303,-194.69815,-42.831886,-0.7212293,-28.116386,-1.286791,0.06426725,-198.72964
22:22:49.616;-0.10516758,-6.0706744,6.543718,1.9003379,0.3183726,-0.0024744272,-10.9135475,-0.7738922,13.036375,-198.71951,0.0,0.0,0.0,0.0,1001.25995,25.6,100.30336,20.665579,100.51002,100.30336,-22.895296,-22.432795,-194.72856,-42.84871,-0.67503756,-28.006166,-1.2683253,0.049963575,-198.66678
22:22:49.668;-0.107118405,-6.0593863,6.5297585,2.5717247,0.1963023,-0.12454474,-10.902038,-0.7663138,13.0603,-198.75488,0.0,0.0,0.0,0.0,1001.22,25.6,100.64157,20.734692,100.510704,100.64157,-22.71021,-22.25978,-194.75954,-42.85639,-0.6889404,-27.872437,-1.2581176,0.049834903,-198.71951
22:22:49.717;-0.10101762,-6.0426946,6.56456,2.2665489,0.1963023,-0.06350958,-10.92963,-0.778651,13.07944,-198.70062,0.0,0.0,0.0,0.0,1001.19995,25.6,100.80804,20.734692,100.510704,100.80804,-22.55827,-22.110651,-194.79659,-42.62627,-0.64867014,-27.761375,-1.2484988,0.04373221,-198.75488
22:22:49.774;-0.09613699,-6.014018,6.592401,2.2055137,-0.04783833,-0.3076502,-10.951704,-0.7885208,13.113152,-198.65744,0.0,0.0,0.0,0.0,1001.25995,25.6,100.30336,23.15374,100.5349,100.30336,-22.39264,-21.959805,-194.83536,-42.370075,-0.6172527,-27.635662,-1.2512256,0.040112164,-198.70062
22:22:49.843;-0.09989393,-5.9987383,6.6070123,2.0224082,0.013196826,0.05856073,-10.969363,-0.7780166,13.121721,-198.71863,0.0,0.0,0.0,0.0,1001.19995,25.6,100.80804,23.15374,100.5349,100.80804,-22.228537,-21.795902,-194.89328,-42.23415,-0.6413349,-27.496117,-1.250315,0.0188843,-198.65744
22:22:49.899;-0.09523803,-5.994176,6.6033783,2.327584,0.1963023,-0.0024744272,-10.983491,-0.7696133,13.128577,-198.76746,0.0,0.0,0.0,0.0,1001.19995,25.6,100.80804,23.222857,100.53559,100.80804,-22.076815,-21.636744,-194.94806,-42.228436,-0.6118403,-27.365772,-1.2393221,0.0221637,-198.71863
22:22:49.946;-0.10683621,-5.9675417,6.615794,2.2665489,-0.29197896,-0.12454474,-11.013193,-0.79969066,13.152462,-198.62256,0.0,0.0,0.0,0.0,1001.25995,25.6,100.30336,23.15374,100.5349,100.30336,-21.942776,-21.530825,-195.00284,-42.0472,-0.6870114,-27.26151,-1.2527531,0.022049876,-198.76746
22:22:49.998;-0.09313041,-5.9615574,6.6180654,2.8158653,-0.04783833,-0.12454474,-11.055354,-0.8053525,13.17157,-198.60913,0.0,0.0,0.0,0.0,1001.22,25.6,100.64157,28.130066,100.58466,100.64157,-21.794146,-21.372726,-195.06009,-42.009724,-0.59903896,-27.11227,-1.2552886,0.015449004,-198.62256
22:22:50.056;-0.11281155,-5.926124,6.650528,2.3886192,0.44044292,-0.0024744272,-11.089084,-0.79148203,13.186855,-198.69308,0.0,0.0,0.0,0.0,1001.16,25.6,101.1436,23.15374,100.5349,101.1436,-21.64349,-21.200098,-195.12302,-41.699364,-0.72557735,-26.97373,-1.2297429,0.008225409,-198.60913
22:22:50.106;-0.12855646,-5.905439,6.653514,2.1444786,-0.16990864,-0.24661505,-11.134467,-0.7987856,13.199084,-198.67227,0.0,0.0,0.0,0.0,1001.1,25.6,101.64828,28.130066,100.58466,101.64828,-21.502733,-21.097563,-195.18648,-41.58589,-0.8279018,-26.866507,-1.2382383,0.008101688,-198.69308
22:22:50.169;-0.11050661,-5.8888907,6.6712255,1.3510215,0.013196826,-0.0024744272,-11.189174,-0.7862285,13.208867,-198.75623,0.0,0.0,0.0,0.0,1001.22,25.6,100.64157,9999999.0,100.64157,9999999.0,-21.42084,-21.005838,-195.26347,-41.43191,-0.71149045,-26.781393,-1.237407,-0.007435061,-198.67227
22:22:50.209;-0.11138962,-5.8756523,6.6777334,1.2899864,0.25733745,-0.06350958,-11.232939,-0.7761828,13.216694,-198.82285,0.0,0.0,0.0,0.0,1001.19995,25.6,100.80804,9999999.0,100.80804,9999999.0,-21.361958,-20.93898,-195.34073,-41.340183,-0.7174871,-26.729794,-1.2271135,-0.0075340383,-198.75623
22:22:50.259;-0.112096034,-5.8497386,6.705924,1.2899864,-0.2309438,0.05856073,-11.286351,-0.7681462,13.222955,-198.88208,0.0,0.0,0.0,0.0,1001.16,25.6,101.1436,9999999.0,101.1436,9999999.0,-21.27889,-20.879065,-195.42087,-41.09501,-0.7217019,-26.665295,-1.2386607,-0.010709518,-198.82285
22:22:50.301;-0.11266116,-5.844331,6.705492,1.7782676,0.013196826,0.05856073,-11.329081,-0.780117,13.227963,-198.83649,0.0,0.0,0.0,0.0,1001.16,25.6,101.1436,9999999.0,101.1436,9999999.0,-21.2097,-20.799475,-195.49817,-41.070545,-0.72565633,-26.590607,-1.2381064,-0.008249967,-198.88208
22:22:50.344;-0.10545182,-5.832343,6.705147,1.9613731,-0.04783833,-0.0024744272,-11.363264,-0.7896936,13.231971,-198.80023,0.0,0.0,0.0,0.0,1001.25995,25.6,100.30336,9999999.0,100.30336,9999999.0,-21.121117,-20.714308,-195.57056,-41.01424,-0.6798466,-26.506268,-1.2401634,-0.005731856,-198.83649
22:22:50.393;-0.09968435,-5.80743,6.7201934,2.7548301,0.1963023,0.119595885,-11.390612,-0.77895486,13.235176,-198.8635,0.0,0.0,0.0,0.0,1001.22,25.6,100.64157,9999999.0,100.64157,9999999.0,-20.984327,-20.568075,-195.64088,-40.82967,-0.6430252,-26.37128,-1.2305447,-0.005853103,-198.80023
22:22:50.447;-0.09507037,-5.802822,6.709246,3.2431114,0.44044292,-0.06350958,-11.449289,-0.77036387,13.219341,-198.9263,0.0,0.0,0.0,0.0,1001.25995,25.6,100.30336,9999999.0,100.30336,9999999.0,-20.80216,-20.37509,-195.70474,-40.853657,-0.6140453,-26.196152,-1.2067608,6.0507515E-4,-198.8635
22:22:50.500;-0.11436352,-5.7684903,6.70815,3.6093223,-0.10887349,0.119595885,-11.496231,-0.7818911,13.243473,-198.88477,0.0,0.0,0.0,0.0,1001.19995,25.6,100.80804,9999999.0,100.80804,9999999.0,-20.593897,-20.202486,-195.77188,-40.68887,-0.7405853,-26.004858,-1.2125311,-0.0027609328,-198.9263
22:22:50.548;-0.11447515,-5.7486863,6.730257,4.097604,0.1963023,0.119595885,-11.533785,-0.7911129,13.262778,-198.8518,0.0,0.0,0.0,0.0,1001.22,25.6,100.64157,9999999.0,100.64157,9999999.0,-20.415651,-20.012924,-195.83122,-40.498386,-0.7409817,-25.808172,-1.2031085,0.0029796697,-198.88477
22:22:50.602;-0.114564456,-5.732843,6.747943,4.52485,0.44044292,-0.0024744272,-11.5638275,-0.78009033,13.259823,-198.91632,0.0,0.0,0.0,0.0,1001.16,25.6,101.1436,9999999.0,101.1436,9999999.0,-20.180132,-19.767614,-195.88228,-40.346123,-0.7412926,-25.56383,-1.1788841,0.009557443,-198.8518
22:22:50.659;-0.10697445,-5.697184,6.769753,4.8300257,0.5014781,0.05856073,-11.624662,-0.77127224,13.275859,-198.97974,0.0,0.0,0.0,0.0,1001.25995,25.6,100.30336,9999999.0,100.30336,9999999.0,-19.899307,-19.487164,-195.93373,-40.079254,-0.6926845,-25.283688,-1.1502999,0.0094164,-198.91632
22:22:50.708;-0.11622535,-5.6609955,6.7795396,5.8676233,0.07423198,-0.36868536,-11.71013,-0.7642178,13.307087,-199.04172,0.0,0.0,0.0,0.0,1001.16,25.6,101.1436,9999999.0,101.1436,9999999.0,-19.612818,-19.232075,-195.9826,-39.85814,-0.7539213,-24.996174,-1.1466626,0.012285876,-198.97974
22:22:50.759;-0.115964614,-5.6167216,6.8103533,6.050729,-0.16990864,-0.36868536,-11.778503,-0.75857425,13.332069,-199.09067,0.0,0.0,0.0,0.0,1001.27997,25.6,100.136894,33.037277,100.633736,100.136894,-19.341137,-18.977694,-196.04982,-39.509445,-0.7526188,-24.693638,-1.155158,-0.0061483933,-199.04172
22:22:50.790;-0.10809458,-5.5813026,6.8350043,6.3559046,0.1963023,-0.36868536,-11.814803,-0.7724594,13.370456,-199.03491,0.0,0.0,0.0,0.0,1001.22,25.6,100.64157,33.037277,100.633736,100.64157,-19.214577,-18.839127,-196.12642,-39.23075,-0.7018183,-24.522028,-1.1498579,-0.016102899,-199.09067
22:22:50.823;-0.11712144,-5.5453057,6.854725,6.7831507,0.5014781,0.05856073,-11.8438425,-0.7835675,13.401165,-198.99057,0.0,0.0,0.0,0.0,1001.13995,25.6,101.312706,20.665579,100.51002,101.312706,-18.995745,-18.612867,-196.21373,-38.967926,-0.761058,-24.271051,-1.1313032,-0.029744256,-199.03491
22:22:50.863;-0.12434293,-5.5011854,6.878163,6.2948694,0.013196826,-0.12454474,-11.903874,-0.774054,13.462532,-199.05518,0.0,0.0,0.0,0.0,1001.25995,25.6,100.30336,20.665579,100.51002,100.30336,-18.766819,-18.40714,-196.29613,-38.64841,-0.8088387,-24.019257,-1.1307753,-0.027401827,-198.99057
22:22:50.908;-0.10713579,-5.4505663,6.8969135,6.2948694,0.07423198,-0.1855799,-11.9887,-0.7664432,13.511625,-199.11765,0.0,0.0,0.0,0.0,1001.19995,25.6,100.80804,20.734692,100.510704,100.80804,-18.527706,-18.167845,-196.38365,-38.315624,-0.6982535,-23.735987,-1.1274348,-0.03300634,-199.05518
22:22:50.947;-0.10869297,-5.4024096,6.919575,6.172799,0.07423198,-0.3076502,-12.05656,-0.7603546,13.5509,-199.16702,0.0,0.0,0.0,0.0,1001.27997,25.6,100.136894,28.130066,100.58466,100.136894,-18.328108,-17.972895,-196.47777,-37.97726,-0.70936364,-23.495247,-1.1245399,-0.040243957,-199.11765
22:22:50.982;-0.10993871,-5.3638844,6.945366,6.2338343,0.3183726,-0.612826,-12.147648,-0.7554837,13.58232,-199.21689,0.0,0.0,0.0,0.0,1001.16,25.6,101.1436,28.130066,100.58466,101.1436,-18.147013,-17.787195,-196.58185,-37.675323,-0.71775925,-23.270828,-1.1130785,-0.051319364,-199.16702
22:22:51.020;-0.10327386,-5.3254027,6.9659986,6.3559046,0.013196826,-0.12454474,-12.220518,-0.751587,13.607456,-199.25626,0.0,0.0,0.0,0.0,1001.25995,25.6,100.30336,20.665579,100.51002,100.30336,-17.942644,-17.596796,-196.70766,-37.39434,-0.67479527,-23.029305,-1.112577,-0.074606754,-199.21689
22:22:51.059;-0.10560343,-5.286956,7.0054893,6.844186,0.3183726,-0.1855799,-12.315615,-0.7300696,13.664365,-199.38312,0.0,0.0,0.0,0.0,1001.22,25.6,100.64157,20.734692,100.510704,100.64157,-17.72404,-17.371178,-196.8365,-37.038273,-0.6893712,-22.76238,-1.1001605,-0.079463996,-199.25626
22:22:51.098;-0.09980563,-5.248537,7.006436,7.0883265,0.07423198,-0.06350958,-12.428492,-0.73125565,13.709892,-199.40839,0.0,0.0,0.0,0.0,1001.13995,25.6,101.312706,20.665579,100.51002,101.312706,-17.49647,-17.15684,-196.97221,-36.834175,-0.65318894,-22.493025,-1.0973396,-0.08651603,-199.38312
22:22:51.131;-0.0951674,-5.202479,7.037839,7.332467,0.5014781,-0.3076502,-12.518793,-0.7322045,13.746314,-199.42831,0.0,0.0,0.0,0.0,1001.1,25.6,101.64828,20.734692,100.510704,101.64828,-17.305967,-16.95609,-197.10777,-36.46988,-0.62299985,-22.251053,-1.0807909,-0.08861185,-199.40839
22:22:51.165;-0.1067797,-5.1656322,7.0553,8.064889,0.5014781,-0.1855799,-12.609434,-0.7145636,13.812251,-199.5322,0.0,0.0,0.0,0.0,1001.16,25.6,101.1436,20.734692,100.510704,101.1436,-17.07239,-16.728226,-197.25127,-36.207092,-0.69963205,-21.976847,-1.0637406,-0.09907196,-199.42831
22:22:51.199;-0.11606954,-5.1208324,7.0769305,8.247994,0.07423198,-0.24661505,-12.681948,-0.7004509,13.865001,-199.61426,0.0,0.0,0.0,0.0,1001.13995,25.6,101.312706,20.665579,100.51002,101.312706,-16.836552,-16.512573,-197.40016,-35.88566,-0.7612659,-21.696415,-1.0612167,-0.105381675,-199.5322
22:22:51.242;-0.115839966,-5.077331,7.1018963,8.6752405,0.1963023,-0.42972052,-12.776758,-0.7075607,13.944,-199.6059,0.0,0.0,0.0,0.0,1001.19995,25.6,100.80804,20.734692,100.510704,100.80804,-16.527914,-16.204287,-197.5581,-35.55836,-0.760207,-21.32338,-1.0527757,-0.11598612,-199.61426
22:22:51.286;-0.10799486,-5.0348682,7.1295304,8.614205,0.56251323,-0.24661505,-12.852607,-0.71324855,14.0072,-199.59927,0.0,0.0,0.0,0.0,1001.13995,25.6,101.312706,20.665579,100.51002,101.312706,-16.213287,-15.878945,-197.73125,-35.22661,-0.70889646,-20.944355,-1.0280252,-0.13489383,-199.6059
22:22:51.326;-0.10171878,-4.977914,7.1669602,8.186959,0.44044292,-0.12454474,-12.968486,-0.7177988,14.05776,-199.60757,0.0,0.0,0.0,0.0,1001.19995,25.6,100.80804,20.665579,100.51002,100.80804,-15.928009,-15.605109,-197.91072,-34.779755,-0.66785717,-20.60869,-1.009967,-0.14500505,-199.59927
22:22:51.371;-0.09669792,-4.924689,7.2122273,7.5766077,0.7456187,-0.06350958,-13.097989,-0.72143906,14.135009,-199.62296,0.0,0.0,0.0,0.0,1001.16,25.6,101.1436,20.665579,100.51002,101.1436,-15.645355,-15.312254,-198.09224,-34.323837,-0.63437873,-20.267742,-0.97641414,-0.15060957,-199.60757
22:22:51.415;-0.108004116,-4.866786,7.2407794,7.5766077,0.25733745,-0.12454474,-13.2015915,-0.7243512,14.196807,-199.63504,0.0,0.0,0.0,0.0,1001.22,25.6,100.64157,20.665579,100.51002,100.64157,-15.3647995,-15.060844,-198.27313,-33.903503,-0.7092626,-19.941948,-0.96534866,-0.15334047,-199.62296
22:22:51.457;-0.10172618,-4.8128023,7.248298,7.1493616,0.3183726,-0.42972052,-13.339673,-0.708281,14.246245,-199.73633,0.0,0.0,0.0,0.0,1001.22,25.6,100.64157,20.734692,100.510704,100.64157,-15.136984,-14.8345375,-198.45576,-33.58119,-0.6698616,-19.641674,-0.951977,-0.15857135,-199.63504
22:22:51.501;-0.10436528,-4.769615,7.269636,7.393502,0.68458354,-0.06350958,-13.486938,-0.7138248,14.322597,-199.74594,0.0,0.0,0.0,0.0,1001.13995,25.6,101.312706,20.734692,100.510704,101.312706,-14.884362,-14.5709095,-198.6553,-33.26621,-0.68771106,-19.31636,-0.92185533,-0.17747906,-199.73633
22:22:51.550;-0.11413801,-4.7120814,7.294368,7.0883265,0.44044292,-0.42972052,-13.604751,-0.7182599,14.3836775,-199.75351,0.0,0.0,0.0,0.0,1001.16,25.6,101.1436,20.734692,100.510704,101.1436,-14.596286,-14.298271,-198.8541,-32.858818,-0.75302446,-18.969032,-0.9002736,-0.18059103,-199.74594
22:22:51.594;-0.114294745,-4.6507316,7.3218145,6.966256,0.3183726,-0.0024744272,-13.717401,-0.7218079,14.432542,-199.76352,0.0,0.0,0.0,0.0,1001.25995,25.6,100.30336,20.734692,100.510704,100.30336,-14.360322,-14.074486,-199.0676,-32.42008,-0.75492597,-18.662518,-0.8862652,-0.19949874,-199.75351
22:22:51.634;-0.12208158,-4.6016517,7.320788,7.271432,0.25733745,-0.55179083,-13.8627205,-0.7062463,14.471634,-199.85916,0.0,0.0,0.0,0.0,1001.13995,25.6,101.312706,20.665579,100.51002,101.312706,-14.150931,-13.874002,-199.27713,-32.14878,-0.80887747,-18.37166,-0.87597173,-0.19959772,-199.76352
22:22:51.677;-0.11298815,-4.547065,7.342951,7.8207483,0.37940776,0.05856073,-13.978976,-0.69379705,14.502907,-199.9343,0.0,0.0,0.0,0.0,1001.16,25.6,101.1436,20.665579,100.51002,101.1436,-13.894581,-13.615319,-199.50816,-31.764502,-0.74950874,-18.027548,-0.8592778,-0.2238765,-199.85916
22:22:51.719;-0.1363592,-4.4880724,7.360681,8.614205,0.6235484,-0.24661505,-14.127181,-0.68383765,14.546326,-200.00433,0.0,0.0,0.0,0.0,1001.25995,25.6,100.30336,33.106396,100.63442,100.30336,-13.6158085,-13.335951,-199.73369,-31.367798,-0.90617263,-17.66575,-0.83308876,-0.22141695,-199.9343
22:22:51.760;-0.13973314,-4.4102325,7.3595424,9.224557,0.3183726,-0.36868536,-14.282545,-0.6758701,14.599461,-200.06635,0.0,0.0,0.0,0.0,1001.19995,25.6,100.80804,28.130066,100.58466,100.80804,-13.326183,-13.065841,-199.96574,-30.92775,-0.9330531,-17.296768,-0.82035387,-0.23128155,-200.00433
22:22:51.800;-0.14243229,-4.3556223,7.3739543,9.773873,0.867689,-0.12454474,-14.4068365,-0.6694961,14.641969,-200.11496,0.0,0.0,0.0,0.0,1001.04,25.6,102.152954,28.130066,100.58466,102.152954,-13.032681,-12.757071,-200.20888,-30.564674,-0.9527982,-16.905813,-0.7856463,-0.24602896,-200.06635
22:22:51.834;-0.15225306,-4.3042727,7.400807,10.384225,0.68458354,-0.1855799,-14.579869,-0.64599687,14.694375,-200.23865,0.0,0.0,0.0,0.0,1001.25995,25.6,100.30336,25.641905,100.55978,100.30336,-12.759462,-12.50184,-200.45224,-30.176804,-1.0188136,-16.55275,-0.76237047,-0.25026348,-200.11496
22:22:51.885;-0.16010967,-4.2248855,7.42995,10.750436,0.13526714,-0.1855799,-14.791896,-0.6639975,14.7547,-200.20538,0.0,0.0,0.0,0.0,1001.13995,25.6,101.312706,23.15374,100.5349,101.312706,-12.306858,-12.075423,-200.70251,-29.618103,-1.0731685,-16.004477,-0.7554718,-0.25972804,-200.23865
22:22:51.929;-0.15873352,-4.1383915,7.4532647,11.726998,1.0507945,-0.49075568,-14.961517,-0.67839795,14.802959,-200.17944,0.0,0.0,0.0,0.0,1001.25995,25.6,100.30336,23.15374,100.5349,100.30336,-11.908956,-11.6468,-200.95511,-29.035513,-1.0666975,-15.488488,-0.70923686,-0.26789355,-200.20538
22:22:51.960;-0.14997116,-4.061535,7.4719167,12.093209,1.0507945,-0.55179083,-15.152414,-0.68991834,14.859968,-200.16864,0.0,0.0,0.0,0.0,1001.22,25.6,100.64157,23.222857,100.53559,100.64157,-11.60507,-11.360221,-201.21753,-28.522484,-1.0102744,-15.101505,-0.67561144,-0.28359774,-200.17944
22:22:51.999;-0.18892993,-3.9617424,7.502161,12.032174,0.37940776,-0.36868536,-15.305132,-0.69913465,14.905575,-200.16019,0.0,0.0,0.0,0.0,1001.22,25.6,100.64157,23.222857,100.53559,100.64157,-11.22975,-11.016169,-201.49556,-27.830147,-1.2757109,-14.632251,-0.6608145,-0.30511758,-200.16864
22:22:52.033;-0.18945117,-3.8742468,7.534018,11.971139,0.56251323,-0.3076502,-15.500906,-0.6881077,14.99726,-200.23386,0.0,0.0,0.0,0.0,1001.16,25.6,101.1436,20.734692,100.510704,101.1436,-10.941094,-10.729152,-201.78017,-27.206396,-1.2810687,-14.225232,-0.64168906,-0.31765288,-200.16019
22:22:52.078;-0.19752961,-3.7736046,7.5901494,11.482858,1.4170054,-0.1855799,-15.657525,-0.6792862,15.070608,-200.29147,0.0,0.0,0.0,0.0,1001.1,25.6,101.64828,13.96136,100.44297,101.64828,-10.547977,-10.302616,-202.0738,-26.427517,-1.3349391,-13.719986,-0.5793408,-0.33118948,-200.23386
22:22:52.114;-0.21165381,-3.6701066,7.627393,10.201119,0.5014781,-0.3076502,-15.8564205,-0.70902896,15.129287,-200.21533,0.0,0.0,0.0,0.0,1001.13995,25.6,101.312706,20.734692,100.510704,101.312706,-10.250409,-10.056356,-202.36928,-25.687057,-1.4323852,-13.352746,-0.5612876,-0.33787036,-200.29147
22:22:52.150;-0.23061462,-3.5719852,7.6571875,8.919381,0.013196826,-0.55179083,-16.070736,-0.7144232,15.19463,-200.23022,0.0,0.0,0.0,0.0,1001.19995,25.6,100.80804,20.734692,100.510704,100.80804,-10.0405245,-9.870517,-202.66817,-24.998531,-1.5634288,-13.031649,-0.5608125,-0.34894577,-200.21533
22:22:52.187;-0.21513748,-3.508811,7.6657004,9.163522,0.37940776,-0.612826,-16.24219,-0.71873856,15.246903,-200.24185,0.0,0.0,0.0,0.0,1001.16,25.6,101.1436,20.734692,100.510704,101.1436,-9.859506,-9.67891,-202.97977,-24.586393,-1.4617964,-12.720089,-0.5479126,-0.36770666,-200.23022
22:22:52.229;-0.17977142,-3.4352872,7.6801724,9.651803,0.867689,0.2416662,-16.434551,-0.72219086,15.288723,-200.25946,0.0,0.0,0.0,0.0,1001.22,25.6,100.64157,20.734692,100.510704,100.64157,-9.541543,-9.336927,-203.3124,-24.092785,-1.2240602,-12.285758,-0.5088666,-0.39528382,-200.24185
22:22:52.271;-0.21277015,-3.3611455,7.714734,9.224557,0.56251323,-0.0024744272,-16.588442,-0.7249527,15.322179,-200.27325,0.0,0.0,0.0,0.0,1001.16,25.6,101.1436,9999999.0,101.1436,9999999.0,-9.241181,-9.062173,-203.62877,-23.533758,-1.4483714,-11.898327,-0.48524106,-0.38513383,-200.25946
22:22:52.313;-0.20852335,-3.2635248,7.7423835,8.736276,0.3183726,-0.612826,-16.785154,-0.70876217,15.385743,-200.35773,0.0,0.0,0.0,0.0,1001.22,25.6,100.64157,20.665579,100.51002,100.64157,-8.969756,-8.805379,-203.9392,-22.84868,-1.4216769,-11.522667,-0.47155103,-0.38524023,-200.27325
22:22:52.356;-0.19746447,-3.2084126,7.7568417,8.797311,0.9897593,-0.06350958,-17.016123,-0.71420974,15.473394,-200.3722,0.0,0.0,0.0,0.0,1001.25995,25.6,100.30336,13.96136,100.44297,100.30336,-8.707844,-8.51893,-204.27094,-22.464586,-1.3475735,-11.144382,-0.42899138,-0.41159174,-200.35773
22:22:52.395;-0.21160169,-3.1260157,7.783731,8.614205,0.80665386,-0.36868536,-17.2009,-0.7185678,15.543515,-200.38348,0.0,0.0,0.0,0.0,1001.19995,25.6,100.80804,13.96136,100.44297,100.80804,-8.456787,-8.285722,-204.59875,-21.873516,-1.4450788,-10.808429,-0.39753187,-0.4140686,-200.3722
22:22:52.438;-0.21525003,-3.060098,7.797581,8.614205,0.44044292,-0.06350958,-17.385519,-0.7404542,15.581212,-200.33685,0.0,0.0,0.0,0.0,1001.27997,25.6,100.136894,9999999.0,100.136894,9999999.0,-8.185398,-8.03257,-204.93576,-21.419704,-1.471992,-10.438018,-0.37859282,-0.42992207,-200.38348
22:22:52.483;-0.22583014,-2.9767182,7.816323,8.6752405,0.867689,-0.1855799,-17.533215,-0.75796336,15.61137,-200.30026,0.0,0.0,0.0,0.0,1001.19995,25.6,100.80804,9999999.0,100.80804,9999999.0,-7.9146533,-7.749878,-205.26785,-20.840565,-1.5466331,-10.056307,-0.3404145,-0.4327165,-200.33685
22:22:52.527;-0.22663279,-2.9176757,7.8236547,8.736276,0.92872417,-0.612826,-17.706572,-0.7535707,15.672297,-200.33865,0.0,0.0,0.0,0.0,1001.19995,25.6,100.80804,9999999.0,100.80804,9999999.0,-7.6270547,-7.4655614,-205.60057,-20.44413,-1.5547215,-9.67191,-0.29955062,-0.440882,-200.30026
22:22:52.570;-0.22727491,-2.839796,7.82952,9.041451,0.9897593,-0.3076502,-17.918858,-0.7684565,15.721037,-200.31998,0.0,0.0,0.0,0.0,1001.19995,25.6,100.80804,13.892244,100.44228,100.80804,-7.3338065,-7.1766844,-205.95323,-19.928164,-1.5631245,-9.283128,-0.25699097,-0.4672335,-200.33865
22:22:52.612;-0.23545004,-2.7774923,7.8342123,9.285592,1.4170054,-0.24661505,-18.143887,-0.7803652,15.796829,-200.31287,0.0,0.0,0.0,0.0,1001.27997,25.6,100.136894,13.892244,100.44228,100.136894,-7.0412154,-6.8745184,-206.31111,-19.512987,-1.6225562,-8.893133,-0.19747674,-0.4801548,-200.31998
22:22:52.656;-0.24199015,-2.6970034,7.853289,9.590768,0.68458354,-0.0024744272,-18.32391,-0.7898922,15.857464,-200.30728,0.0,0.0,0.0,0.0,1001.19995,25.6,100.80804,9999999.0,100.80804,9999999.0,-6.6929817,-6.5623183,-206.67258,-18.945322,-1.6693087,-8.461549,-0.16667049,-0.49125248,-200.31287
22:22:52.701;-0.25488368,-2.609628,7.9068575,8.614205,0.6235484,-0.36868536,-18.541529,-0.81591374,15.924372,-200.25598,0.0,0.0,0.0,0.0,1001.19995,25.6,100.80804,9999999.0,100.80804,9999999.0,-6.4247556,-6.3044405,-207.0268,-18.256422,-1.7533677,-8.082523,-0.13923436,-0.49136135,-200.30728
22:22:52.741;-0.2651985,-2.5244048,7.9343896,7.271432,0.44044292,-0.12454474,-18.715624,-0.836731,15.977898,-200.21576,0.0,0.0,0.0,0.0,1001.16,25.6,101.1436,28.130066,100.58466,101.1436,-6.2389803,-6.1329894,-207.38773,-17.639746,-1.8242955,-7.7843947,-0.121176206,-0.5064775,-200.25598
22:22:52.789;-0.2811118,-2.456226,7.956415,6.905221,0.37940776,-0.12454474,-18.9285,-0.8533848,16.039118,-200.19421,0.0,0.0,0.0,0.0,1001.16,25.6,101.1436,13.892244,100.44228,101.1436,-6.028426,-5.9286814,-207.74649,-17.145918,-1.9335368,-7.4529443,-0.10296463,-0.51245564,-200.21576
22:22:52.835;-0.2708581,-2.3863604,7.9663744,6.966256,0.68458354,-0.12454474,-19.1356,-0.84830785,16.088095,-200.23727,0.0,0.0,0.0,0.0,1001.25995,25.6,100.30336,13.892244,100.44228,100.30336,-5.8362303,-5.7266254,-208.10315,-16.666708,-1.8654786,-7.139463,-0.072158374,-0.51806015,-200.19421
22:22:52.882;-0.2856395,-2.330468,7.96668,6.966256,0.25733745,0.05856073,-19.35648,-0.8626463,16.145676,-200.22385,0.0,0.0,0.0,0.0,1001.16,25.6,101.1436,13.892244,100.44228,101.1436,-5.6171412,-5.5323634,-208.45927,-16.295702,-1.9708922,-6.812049,-0.060063515,-0.52391374,-200.23727
22:22:52.944;-0.28980315,-2.2627695,7.9822474,7.1493616,0.44044292,-0.42972052,-19.606783,-0.874117,16.21014,-200.22293,0.0,0.0,0.0,0.0,1001.16,25.6,101.1436,23.222857,100.53559,101.1436,-5.3036575,-5.210833,-208.80444,-15.816821,-2.0005074,-6.3687887,-0.032756053,-0.520283,-200.22385
22:22:52.992;-0.28547263,-2.1932878,7.98704,7.0272913,0.3183726,0.119595885,-19.807026,-0.8832936,16.261713,-200.22223,0.0,0.0,0.0,0.0,1001.16,25.6,101.1436,20.734692,100.510704,101.1436,-5.076084,-4.998754,-209.16333,-15.345917,-1.9739796,-6.0244513,-0.017155796,-0.5413393,-200.22293
22:22:53.034;-0.28200823,-2.1147182,7.9908743,7.0272913,1.4780406,-0.24661505,-20.00402,-0.8906349,16.321371,-200.22635,0.0,0.0,0.0,0.0,1001.25995,25.6,100.30336,13.96136,100.44297,100.30336,-4.90582,-4.7859473,-209.5101,-14.814224,-1.9539915,-5.7293053,0.04492191,-0.5363163,-200.22223
22:22:53.079;-0.3098825,-2.0442011,8.009264,6.53901,0.3183726,-0.0024744272,-20.235216,-0.91490793,16.387497,-200.18683,0.0,0.0,0.0,0.0,1001.22,25.6,100.64157,13.96136,100.44297,100.64157,-4.6880107,-4.6231494,-209.86089,-14.307637,-2.1469402,-5.43505,0.05924868,-0.54741395,-200.22635
22:22:53.121;-0.28621322,-1.9801259,8.0163145,6.844186,1.2339,0.05856073,-20.420174,-0.93432635,16.440397,-200.15588,0.0,0.0,0.0,0.0,1001.13995,25.6,101.312706,9999999.0,101.312706,9999999.0,-4.5263095,-4.4247003,-210.20398,-13.866508,-1.9851942,-5.1475945,0.11107248,-0.5475179,-200.18683
22:22:53.192;-0.32856935,-1.8905585,8.037278,5.9896936,0.07423198,-0.24661505,-20.623339,-0.9498611,16.482718,-200.13858,0.0,0.0,0.0,0.0,1001.16,25.6,101.1436,9999999.0,101.1436,9999999.0,-4.1898336,-4.146522,-210.53555,-13.22604,-2.2788587,-4.728316,0.11626872,-0.54341865,-200.15588
22:22:53.252;-0.32414705,-1.8112432,8.069372,4.64692,0.44044292,-0.06350958,-20.84107,-0.9622889,16.534973,-200.13199,0.0,0.0,0.0,0.0,1001.19995,25.6,100.80804,9999999.0,100.80804,9999999.0,-4.043173,-3.981302,-210.87465,-12.641009,-2.244549,-4.4495006,0.1426953,-0.55821556,-200.13858
22:22:54.638;-0.33593208,-1.6175463,8.087385,0.19135356,0.013196826,0.05856073,-21.475256,-1.0090312,16.631979,-200.08551,0.0,0.0,0.0,0.0,1001.22,25.6,100.64157,9999999.0,100.64157,9999999.0,-3.867782,-3.8191502,-211.29312,-11.300911,-2.33243,-4.1842847,0.1609861,-0.6462399,-200.13199
22:22:55.015;-0.33769867,-1.4625889,8.086473,0.1303184,0.1963023,-0.06350958,-22.001005,-1.0280249,16.727983,-200.10034,0.0,0.0,0.0,0.0,1001.1,25.6,101.64828,9999999.0,101.64828,9999999.0,-3.8994882,-3.7960365,-211.68065,-10.243431,-2.3531988,-4.1351547,0.23499206,-0.6241625,-200.08551
22:22:55.040;-0.3467734,-1.3386229,8.093405,-0.052787066,-0.10887349,0.119595885,-22.421604,-1.0432199,16.804787,-200.11172,0.0,0.0,0.0,0.0,1001.1,25.6,101.64828,9999999.0,101.64828,9999999.0,-3.90907,-3.8819673,-212.06227,-9.383059,-2.4205728,-4.1364746,0.23227023,-0.62575024,-200.10034
22:22:55.063;-0.33871028,-1.2394501,8.091289,0.06928325,-0.10887349,-0.12454474,-22.758083,-1.0553759,16.84783,-200.12051,0.0,0.0,0.0,0.0,1001.1,25.6,101.64828,9999999.0,101.64828,9999999.0,-3.976797,-3.9471042,-212.43379,-8.701552,-2.3694584,-4.134881,0.22976613,-0.62299955,-200.11172
22:22:55.086;-0.34758267,-1.1601119,8.081934,-0.052787066,0.13526714,-0.12454474,-23.027267,-1.0651008,16.882263,-200.12735,0.0,0.0,0.0,0.0,1001.04,25.6,102.152954,9999999.0,102.152954,9999999.0,-4.032628,-3.9975474,-212.80101,-8.161215,-2.4376676,-4.136148,0.23301254,-0.6259886,-200.12051
22:22:55.110;-0.3546806,-1.0966413,8.082112,0.06928325,0.13526714,-0.06350958,-23.242615,-1.0728806,16.909811,-200.13272,0.0,0.0,0.0,0.0,1001.16,25.6,101.1436,9999999.0,101.1436,9999999.0,-4.0704303,-4.035773,-213.16382,-7.7197876,-2.4900043,-4.1345544,0.23612368,-0.62885314,-200.12735
22:22:55.135;-0.36035892,-1.0535263,8.082254,-0.11382222,0.013196826,0.05856073,-23.414892,-1.0607045,16.931849,-200.18188,0.0,0.0,0.0,0.0,1001.22,25.6,100.64157,9999999.0,100.64157,9999999.0,-4.1063447,-4.074512,-213.5211,-7.4193735,-2.5315356,-4.1375136,0.2364668,-0.63050437,-200.13272
22:22:55.159;-0.37256303,-1.0190343,8.082369,-0.11382222,0.07423198,0.05856073,-23.552713,-1.0509636,16.949478,-200.22067,0.0,0.0,0.0,0.0,1001.13995,25.6,101.312706,9999999.0,101.312706,9999999.0,-4.139268,-4.107107,-213.87083,-7.1784573,-2.6185236,-4.1402454,0.23824836,-0.6290989,-200.18188
22:22:55.183;-0.37466487,-0.9837792,8.090121,-0.052787066,0.1963023,-0.12454474,-23.662971,-1.0431709,16.963583,-200.2514,0.0,0.0,0.0,0.0,1001.13995,25.6,101.312706,9999999.0,101.312706,9999999.0,-4.164725,-4.1294575,-214.21298,-6.92592,-2.6321912,-4.1415124,0.24295962,-0.6276934,-200.22067
22:22:55.207;-0.37634635,-0.9632366,8.103985,0.19135356,0.07423198,-0.12454474,-23.751177,-1.0737368,16.974867,-200.18716,0.0,0.0,0.0,0.0,1001.19995,25.6,100.80804,9999999.0,100.80804,9999999.0,-4.17779,-4.145295,-214.5518,-6.771124,-2.6403277,-4.13692,0.24474119,-0.63068247,-200.2514
22:22:55.236;-0.38535297,-0.93914104,8.099752,0.19135356,-0.10887349,0.05856073,-23.821741,-1.0981895,16.983894,-200.13614,0.0,0.0,0.0,0.0,1001.19995,25.6,100.80804,9999999.0,100.80804,9999999.0,-4.1892653,-4.1625824,-214.886,-6.6063285,-2.7057445,-4.131562,0.24169272,-0.6341697,-200.18716
22:22:55.270;-0.3848968,-0.91986465,8.096367,0.008248091,0.07423198,-0.1855799,-23.878193,-1.1177516,16.991116,-200.09555,0.0,0.0,0.0,0.0,1001.16,25.6,101.1436,9999999.0,101.1436,9999999.0,-4.208548,-4.1759915,-215.21053,-6.474587,-2.7043881,-4.131282,0.2442166,-0.6321786,-200.13614
22:22:55.295;-0.39219335,-0.8967821,8.10132,-0.11382222,0.013196826,-0.06350958,-23.923355,-1.1334013,16.996893,-200.0632,0.0,0.0,0.0,0.0,1001.19995,25.6,100.80804,9999999.0,100.80804,9999999.0,-4.2214475,-4.191791,-215.53232,-6.3093557,-2.754784,-4.1341276,0.24454653,-0.6368181,-200.09555
22:22:55.319;-0.39803058,-0.8859775,8.105283,-0.052787066,0.07423198,-0.06350958,-23.959484,-1.145921,17.001514,-200.03741,0.0,0.0,0.0,0.0,1001.1,25.6,101.64828,9999999.0,101.64828,9999999.0,-4.2338114,-4.2032847,-215.84851,-6.2307086,-2.7947764,-4.1353946,0.2463281,-0.6383423,-200.0632
22:22:55.342;-0.3950389,-0.86967236,8.100791,-0.17485738,0.13526714,-0.0024744272,-24.006788,-1.1375368,17.023611,-200.06274,0.0,0.0,0.0,0.0,1001.19995,25.6,100.80804,9999999.0,100.80804,9999999.0,-4.245568,-4.2131257,-216.1593,-6.120386,-2.7759182,-4.139416,0.24943924,-0.63980305,-200.03741
22:22:55.366;-0.40030703,-0.8642897,8.097198,0.008248091,0.1963023,-0.24661505,-24.04463,-1.1308295,17.041288,-200.08298,0.0,0.0,0.0,0.0,1001.1,25.6,101.64828,9999999.0,101.64828,9999999.0,-4.250375,-4.2170367,-216.46443,-6.0852704,-2.814308,-4.1392183,0.25415048,-0.6398624,-200.06274
22:22:55.390;-0.39686006,-0.85998356,8.101984,-0.23589253,0.013196826,-0.06350958,-24.056503,-1.1254636,17.037031,-200.09705,0.0,0.0,0.0,0.0,1001.16,25.6,101.1436,9999999.0,101.1436,9999999.0,-4.2592793,-4.229556,-216.76968,-6.051761,-2.7886415,-4.14488,0.2544672,-0.64578116,-200.08298
22:22:55.414;-0.40176395,-0.8488772,8.09049,0.1303184,0.1963023,0.2416662,-24.066002,-1.1211709,17.033625,-200.1083,0.0,0.0,0.0,0.0,1001.16,25.6,101.1436,9999999.0,101.1436,9999999.0,-4.261548,-4.228248,-217.07059,-5.982402,-2.8274086,-4.1417522,0.25917843,-0.64730537,-200.09705
22:22:55.439;-0.3980256,-0.84765357,8.088957,-0.052787066,-0.04783833,0.18063104,-24.0736,-1.1177367,17.0309,-200.11731,0.0,0.0,0.0,0.0,1001.22,25.6,100.64157,9999999.0,100.64157,9999999.0,-4.2644787,-4.2363954,-217.35979,-5.9750977,-2.8017104,-4.143072,0.25798246,-0.6412637,-200.1083
22:22:55.462;-0.40269637,-0.86199754,8.080069,-0.23589253,0.013196826,0.05856073,-24.079681,-1.1149894,17.028719,-200.12448,0.0,0.0,0.0,0.0,1001.22,25.6,100.64157,9999999.0,100.64157,9999999.0,-4.2788534,-4.2497077,-217.63913,-6.0819025,-2.8370876,-4.1487336,0.25829917,-0.63692856,-200.11731
22:22:55.486;-0.406433,-0.85048836,8.08062,0.008248091,-0.16990864,0.05856073,-24.084545,-1.1127915,17.026976,-200.13025,0.0,0.0,0.0,0.0,1001.19995,25.6,100.80804,9999999.0,100.80804,9999999.0,-4.284535,-4.260113,-217.91165,-6.000752,-2.863603,-4.1485357,0.25422135,-0.6355231,-200.12448
22:22:55.510;-0.40176085,-0.8489425,8.065738,-0.11382222,-0.10887349,-0.0024744272,-24.088436,-1.1110332,17.025581,-200.13483,0.0,0.0,0.0,0.0,1001.16,25.6,101.1436,9999999.0,101.1436,9999999.0,-4.297609,-4.2709365,-218.17746,-6.0010405,-2.8359523,-4.1512675,0.25160837,-0.6341176,-200.13025
