22:22:03.295;[m/s²] X,[m/s²] Y,[m/s²] Z,[°/s] X,[°/s] Y,[°/s] Z,[µT] X,[µT] Y,[µT] Z,[µT] Direção,[RPM] 1,[RPM] 2,[RPM] 3,[RPM] 4,[hPa],[°C],[m] Baro ,[cm] Down,[m] Abs,[m] Rel,[°] X,[°] Y,[°] Z,[°] Acce X,[°] Acce Y,[°] Gyro X,[°] Gyro Y,[°] Gyro Z,[°] Mag Z
22:22:03.296;-0.4213795,-0.7278373,8.197746,-0.17485738,0.07423198,0.05856073,-24.196001,-1.3800001,17.296,-199.51135,0.0,0.0,0.0,0.0,1001.07996,26.0,101.81738,9999999.0,101.81738,99999.99,-0.10134091,-0.15793426,0.0,-5.0670505,-2.9310112,0.0,0.0,0.0,0.0
22:22:03.300;-0.4213795,-0.7354988,8.182424,-0.11382222,0.07423198,-0.24661505,-24.1776,-1.3616,17.296,-199.55234,0.0,0.0,0.0,0.0,1001.22,26.0,100.64157,9999999.0,100.64157,9999999.0,-0.26662615,-0.31397963,-3.9854598,-5.1296177,-2.936204,-0.009447244,0.0061612544,0.0048605404,-199.51135
22:22:03.357;-0.4213795,-0.73396647,8.154842,-0.052787066,-0.16990864,0.05856073,-24.16288,-1.3468801,17.3144,-199.58517,0.0,0.0,0.0,0.0,1001.13995,26.0,101.312706,9999999.0,101.312706,9999999.0,-0.41290632,-0.4715624,-7.903631,-5.1361628,-2.946087,-0.0119810235,-0.0019943607,-0.006976982,-199.55234
22:22:03.380;-0.4213795,-0.73274064,8.1481,0.008248091,0.13526714,0.05856073,-24.151104,-1.3351041,17.32912,-199.61145,0.0,0.0,0.0,0.0,1001.07996,26.0,101.81738,9999999.0,101.81738,9999999.0,-0.5645253,-0.60822874,-11.742374,-5.1318393,-2.9485402,-0.01173358,0.0020636534,-0.0052201604,-199.58517
22:22:03.421;-0.41371804,-0.73175997,8.15803,-0.35796285,-0.10887349,0.05856073,-24.160084,-1.3072833,17.340897,-199.6784,0.0,0.0,0.0,0.0,1001.27997,26.0,100.136894,9999999.0,100.136894,9999999.0,-0.7128283,-0.7607775,-15.502516,-5.1190634,-2.8915637,-0.026410058,-0.0024001598,-0.0028191705,-199.61145
22:22:03.449;-0.4229118,-0.73097545,8.158312,-0.052787066,-0.04783833,-0.06350958,-24.167267,-1.2850267,17.350317,-199.73196,0.0,0.0,0.0,0.0,1001.06,26.0,101.98649,9999999.0,101.98649,9999999.0,-0.84932476,-0.89281046,-19.187128,-5.113136,-2.955632,-0.027940882,-0.0037874714,-0.0011209093,-199.6784
22:22:03.493;-0.43792823,-0.7380093,8.143214,-0.052787066,0.13526714,-0.0024744272,-24.154613,-1.2856213,17.357853,-199.72894,0.0,0.0,0.0,0.0,1001.19995,26.0,100.80804,9999999.0,100.80804,9999999.0,-0.98059994,-1.016603,-22.801796,-5.171066,-3.0657637,-0.030210726,0.0020290157,-0.0038518216,-199.73196
22:22:03.531;-0.44227993,-0.7359749,8.138798,0.008248091,-0.16990864,0.05856073,-24.144491,-1.286097,17.363882,-199.72656,0.0,0.0,0.0,0.0,1001.06,26.0,101.98649,9999999.0,101.98649,9999999.0,-1.0991378,-1.1457734,-26.344208,-5.159516,-3.097902,-0.029880803,-0.00476733,-0.003950799,-199.72894
22:22:03.571;-0.43809986,-0.7420088,8.142926,-0.17485738,0.25733745,-0.06350958,-24.154793,-1.2864777,17.368706,-199.72696,0.0,0.0,0.0,0.0,1001.13995,26.0,101.312706,9999999.0,101.312706,9999999.0,-1.2335232,-1.2603561,-29.813486,-5.199113,-3.0669348,-0.03670024,0.0052688313,-0.0016669305,-199.72656
22:22:03.615;-0.4347558,-0.7544974,8.138567,-0.11382222,0.1963023,-0.06350958,-24.163034,-1.2683822,17.372564,-199.77078,0.0,0.0,0.0,0.0,1001.07996,26.0,101.81738,9999999.0,101.81738,9999999.0,-1.3458378,-1.3713516,-33.216125,-5.289049,-3.0447574,-0.041708417,0.013906132,-0.0044613522,-199.72696
22:22:03.642;-0.43208054,-0.7644883,8.13508,-0.052787066,0.3183726,-0.0024744272,-24.169628,-1.2539058,17.375652,-199.80582,0.0,0.0,0.0,0.0,1001.16,26.0,101.1436,9999999.0,101.1436,9999999.0,-1.4525422,-1.475607,-36.55327,-5.3610506,-3.0269966,-0.04313367,0.022502193,-0.0061761113,-199.77078
22:22:03.681;-0.43760177,-0.74949664,8.124629,-0.11382222,0.07423198,0.05856073,-24.193302,-1.2423246,17.378122,-199.83606,0.0,0.0,0.0,0.0,1001.1,26.0,101.64828,9999999.0,101.64828,9999999.0,-1.5557058,-1.5831552,-39.824463,-5.26303,-3.0700266,-0.047572736,0.025397241,-0.006272614,-199.80582
22:22:03.720;-0.43435732,-0.7528262,8.12393,0.008248091,0.013196826,0.05856073,-24.212242,-1.2330596,17.380098,-199.86023,0.0,0.0,0.0,0.0,1001.25995,26.0,100.30336,9999999.0,100.30336,9999999.0,-1.6569216,-1.6842407,-43.028656,-5.286842,-3.0474532,-0.04725931,0.025898721,-0.0040473063,-199.83606
22:22:03.752;-0.4241003,-0.7554899,8.115709,-0.17485738,0.1963023,-0.0024744272,-24.190594,-1.2440478,17.40008,-199.83167,0.0,0.0,0.0,0.0,1001.07996,26.0,101.81738,9999999.0,101.81738,9999999.0,-1.762433,-1.7804062,-46.167355,-5.3111215,-2.978514,-0.0530296,0.032376695,-0.0021148021,-199.86023
22:22:03.780;-0.42355615,-0.7576208,8.124455,-0.17485738,-0.04783833,0.05856073,-24.173275,-1.2528383,17.416063,-199.80878,0.0,0.0,0.0,0.0,1001.16,26.0,101.1436,9999999.0,101.1436,9999999.0,-1.8561745,-1.8798397,-49.24278,-5.320349,-2.9714582,-0.058100466,0.030989384,-0.0021865605,-199.83167
22:22:03.820;-0.42312083,-0.7516641,8.116129,-0.052787066,0.13526714,-0.0024744272,-24.17782,-1.2598706,17.41045,-199.79272,0.0,0.0,0.0,0.0,1001.22,26.0,100.64157,9999999.0,100.64157,9999999.0,-1.9499948,-1.9651248,-52.25394,-5.2841406,-2.971624,-0.06021195,0.03640007,1.5586847E-4,-199.80878
22:22:03.857;-0.42277256,-0.7468988,8.124791,-0.17485738,0.13526714,-0.06350958,-24.181456,-1.2654965,17.40596,-199.77988,0.0,0.0,0.0,0.0,1001.13995,26.0,101.312706,9999999.0,101.312706,9999999.0,-2.0370684,-2.0507464,-55.204647,-5.2452884,-2.9662082,-0.06668167,0.04140495,6.431466E-5,-199.79272
22:22:03.884;-0.4148325,-0.7584094,8.116398,-0.11382222,-0.04783833,-0.0024744272,-24.184364,-1.2331972,17.402369,-199.85657,0.0,0.0,0.0,0.0,1001.16,26.0,101.1436,9999999.0,101.1436,9999999.0,-2.1192596,-2.136357,-58.097706,-5.331391,-2.913197,-0.069641046,0.040161155,-0.0015869346,-199.77988
22:22:03.915;-0.4161419,-0.75229496,8.102022,-0.17485738,0.13526714,-0.06350958,-24.186691,-1.2073578,17.399494,-199.91791,0.0,0.0,0.0,0.0,1001.19995,26.0,100.80804,9999999.0,100.80804,9999999.0,-2.2049005,-2.2152472,-60.93451,-5.2979155,-2.9277115,-0.07506163,0.044354435,-0.0016636418,-199.85657
22:22:03.945;-0.41718942,-0.74740344,8.1058445,-0.11382222,-0.04783833,0.05856073,-24.188553,-1.2050862,17.415596,-199.9235,0.0,0.0,0.0,0.0,1001.16,26.0,101.1436,9999999.0,101.1436,9999999.0,-2.2795117,-2.2940052,-63.717674,-5.2611656,-2.9338608,-0.078476295,0.042919286,-0.0035689292,-199.91791
22:22:03.973;-0.41802743,-0.7434902,8.108902,-0.17485738,0.13526714,-0.1855799,-24.190042,-1.203269,17.428476,-199.92795,0.0,0.0,0.0,0.0,1001.22,26.0,100.64157,9999999.0,100.64157,9999999.0,-2.3575587,-2.3654714,-66.44368,-5.231788,-2.9387755,-0.0833723,0.046706766,-0.0019292287,-199.9235
22:22:04.005;-0.41869783,-0.74035966,8.111348,-0.17485738,0.07423198,-0.0024744272,-24.191235,-1.2202152,17.438782,-199.88806,0.0,0.0,0.0,0.0,1001.1,26.0,101.64828,9999999.0,101.64828,9999999.0,-2.4278114,-2.4357815,-69.12107,-5.2083,-2.9427044,-0.08896774,0.04908219,-0.007867785,-199.92795
22:22:04.033;-0.41923416,-0.7378552,8.113305,-0.11382222,-0.04783833,0.05856073,-24.192188,-1.2337722,17.447025,-199.85614,0.0,0.0,0.0,0.0,1001.07996,26.0,101.81738,9999999.0,101.81738,9999999.0,-2.4939795,-2.5043294,-71.74419,-5.1895185,-2.9458456,-0.09215476,0.047742717,-0.007937069,-199.88806
22:22:04.062;-0.41966322,-0.73585165,8.122532,-0.052787066,0.07423198,0.05856073,-24.192951,-1.2446177,17.45362,-199.83063,0.0,0.0,0.0,0.0,1001.07996,26.0,101.81738,9999999.0,101.81738,9999999.0,-2.5591362,-2.564756,-74.31254,-5.169658,-2.9456038,-0.09368559,0.049895443,-0.006238808,-199.85614
22:22:04.104;-0.42000648,-0.7419102,8.106929,-0.11382222,0.25733745,0.05856073,-24.211962,-1.2532941,17.440496,-199.81244,0.0,0.0,0.0,0.0,1001.16,26.0,101.1436,9999999.0,101.1436,9999999.0,-2.6226954,-2.618466,-76.82655,-5.221926,-2.9534276,-0.09857994,0.060960956,-0.0037206965,-199.83063
22:22:04.149;-0.42028108,-0.7390956,8.102108,0.008248091,0.13526714,-0.06350958,-24.208769,-1.2602353,17.429996,-199.79568,0.0,0.0,0.0,0.0,1001.07996,26.0,101.81738,9999999.0,101.81738,9999999.0,-2.6698468,-2.669761,-79.28739,-5.205286,-2.9571888,-0.098217025,0.06691271,-0.0011440245,-199.81244
22:22:04.196;-0.42050076,-0.73684394,8.105913,-0.17485738,0.07423198,-0.0024744272,-24.206215,-1.2657882,17.421597,-199.78226,0.0,0.0,0.0,0.0,1001.06,26.0,101.98649,9999999.0,101.98649,9999999.0,-2.7281613,-2.7293274,-81.7016,-5.187091,-2.9574306,-0.10643532,0.07040162,-0.004128975,-199.79568
22:22:04.232;-0.4206765,-0.74270403,8.108957,-0.052787066,0.25733745,-0.12454474,-24.167372,-1.2702305,17.396477,-199.76694,0.0,0.0,0.0,0.0,1001.16,26.0,101.1436,9999999.0,101.1436,9999999.0,-2.7811265,-2.7755725,-84.067345,-5.2261634,-2.957372,-0.10833566,0.079665765,-0.004218054,-199.78226
22:22:04.273;-0.4208171,-0.7397307,8.111392,-0.23589253,-0.16990864,-0.0024744272,-24.173098,-1.2553844,17.37638,-199.80273,0.0,0.0,0.0,0.0,1001.16,26.0,101.1436,9999999.0,101.1436,9999999.0,-2.8336153,-2.8429215,-86.39047,-5.203802,-2.9575777,-0.11800725,0.07269951,-0.009324389,-199.76694
22:22:04.306;-0.42092958,-0.7450135,8.105679,-0.17485738,-0.04783833,0.119595885,-24.17768,-1.2435075,17.360304,-199.83139,0.0,0.0,0.0,0.0,1001.27997,26.0,100.136894,9999999.0,100.136894,9999999.0,-2.8966062,-2.8994262,-88.66793,-5.2444186,-2.960256,-0.123777546,0.07112084,-0.009406045,-199.80273
22:22:04.337;-0.41335812,-0.7415782,8.101108,-0.11382222,-0.04783833,-0.0024744272,-24.181343,-1.234006,17.347443,-199.85428,0.0,0.0,0.0,0.0,1001.16,26.0,101.1436,9999999.0,101.1436,9999999.0,-2.9493666,-2.9500093,-90.89679,-5.2235413,-2.9088366,-0.12730603,0.06963786,-0.005698573,-199.83139
22:22:04.364;-0.42262384,-0.73883003,8.105112,-0.052787066,0.07423198,-0.06350958,-24.184275,-1.2264048,17.337154,-199.87259,0.0,0.0,0.0,0.0,1001.25995,26.0,100.30336,9999999.0,100.30336,9999999.0,-2.9964347,-2.993993,-93.08159,-5.201435,-2.9725611,-0.12873128,0.07164212,-0.005765382,-199.85428
22:22:04.388;-0.43003643,-0.7366315,8.108316,0.008248091,0.07423198,-0.12454474,-24.18662,-1.2203238,17.328924,-199.88724,0.0,0.0,0.0,0.0,1001.07996,26.0,101.81738,192.48708,103.742256,101.81738,-3.0375943,-3.0355666,-95.22455,-5.183762,-3.0234928,-0.12853333,0.07342369,-0.007289612,-199.87259
22:22:04.418;-0.42830503,-0.7348727,8.103218,-0.11382222,0.07423198,-0.06350958,-24.188498,-1.2338591,17.32234,-199.8555,0.0,0.0,0.0,0.0,1001.16,26.0,101.1436,192.48708,103.742256,101.1436,-3.0816963,-3.0781455,-97.328606,-5.1747375,-3.0132766,-0.131948,0.07565065,-0.011025954,-199.88724
22:22:04.446;-0.42691994,-0.7334656,8.099139,-0.23589253,0.13526714,0.05856073,-24.189999,-1.2446872,17.317072,-199.83008,0.0,0.0,0.0,0.0,1001.22,26.0,100.64157,192.48708,103.742256,100.64157,-3.126637,-3.1203618,-99.391754,-5.1675086,-3.0050943,-0.13878888,0.07957339,-0.012867732,-199.8555
22:22:04.476;-0.38750464,-0.7400014,8.111199,-0.23589253,-0.2309438,0.18063104,-24.191198,-1.3453498,17.312857,-199.5925,0.0,0.0,0.0,0.0,1001.19995,26.0,100.80804,9999999.0,100.80804,9999999.0,-3.168796,-3.1664612,-101.41146,-5.2068753,-2.7238753,-0.14562976,0.07287602,-0.011169471,-199.83008
22:22:04.503;-0.3789567,-0.7605529,8.113186,0.19135356,0.867689,0.119595885,-24.19216,-1.4258798,17.309484,-199.40253,0.0,0.0,0.0,0.0,1001.25995,26.0,100.30336,9999999.0,100.30336,9999999.0,-3.2050612,-3.1712532,-103.38125,-5.3496184,-2.6626134,-0.14046322,0.09630363,-0.0062924325,-199.5925
22:22:04.530;-0.40276414,-0.7616712,8.114775,-0.11382222,0.013196826,-0.3076502,-24.211329,-1.4719038,17.288387,-199.29666,0.0,0.0,0.0,0.0,1001.16,26.0,101.1436,9999999.0,101.1436,9999999.0,-3.2179527,-3.2098255,-105.30467,-5.355647,-2.82904,-0.14353642,0.09665994,-0.0030633435,-199.40253
22:22:04.588;-0.44479445,-0.7778888,8.123708,0.008248091,0.25733745,-0.1855799,-24.226664,-1.508723,17.27151,-199.21213,0.0,0.0,0.0,0.0,1001.22,26.0,100.64157,9999999.0,100.64157,9999999.0,-3.2543914,-3.237071,-107.205,-5.461572,-3.1197245,-0.14305803,0.11158551,-0.020907056,-199.29666
22:22:04.655;-0.44011146,-0.7525556,8.115531,-0.23589253,0.25733745,0.42477167,-24.275732,-1.4461784,17.276407,-199.36636,0.0,0.0,0.0,0.0,1001.22,26.0,100.64157,9999999.0,100.64157,9999999.0,-3.2933908,-3.2726967,-109.07764,-5.290175,-3.0909183,-0.15862694,0.12856978,-0.03315533,-199.21213
22:22:04.765;-0.42104217,-0.7246276,8.101328,-0.23589253,0.013196826,-0.06350958,-24.204586,-1.5249428,17.261927,-199.17062,0.0,0.0,0.0,0.0,1001.16,26.0,101.1436,9999999.0,101.1436,9999999.0,-3.335222,-3.3263352,-110.86928,-5.1043973,-2.9632902,-0.18504691,0.13004783,0.014419097,-199.36636
22:22:04.790;-0.42877108,-0.69462377,8.089966,-0.17485738,0.13526714,-0.12454474,-24.147669,-1.5879542,17.250341,-199.01328,0.0,0.0,0.0,0.0,1001.13995,26.0,101.312706,9999999.0,101.312706,9999999.0,-3.3621058,-3.3520048,-112.62273,-4.9006715,-3.022757,-0.18941835,0.13342951,0.012831358,-199.17062
22:22:04.826;-0.4196313,-0.693605,8.088537,-0.11382222,0.13526714,0.546842,-24.157335,-1.6199634,17.222673,-198.93918,0.0,0.0,0.0,0.0,1001.1,26.0,101.64828,9999999.0,101.64828,9999999.0,-3.3868737,-3.3735437,-114.342354,-4.8946643,-2.9589884,-0.19351594,0.13829912,0.008347748,-199.01328
22:22:04.852;-0.41998094,-0.71577436,8.087395,-0.23589253,0.013196826,-0.24661505,-24.165068,-1.6455708,17.200539,-198.87997,0.0,0.0,0.0,0.0,1001.25995,26.0,100.30336,9999999.0,100.30336,9999999.0,-3.4128723,-3.4035146,-116.01271,-5.05101,-2.9611633,-0.19941325,0.13862905,0.022018798,-198.93918
22:22:04.882;-0.3972763,-0.7105255,8.086481,-0.23589253,0.013196826,-0.42972052,-24.208054,-1.6108567,17.219631,-198.96866,0.0,0.0,0.0,0.0,1001.16,26.0,101.1436,9999999.0,101.1436,9999999.0,-3.442688,-3.4294825,-117.65572,-5.015428,-2.8018143,-0.20649002,0.13902496,0.014620347,-198.87997
22:22:04.910;-0.3944355,-0.6833421,8.078089,-0.11382222,0.25733745,0.85201776,-24.242443,-1.5830853,17.234905,-199.0394,0.0,0.0,0.0,0.0,1001.16,26.0,101.1436,9999999.0,101.1436,9999999.0,-3.4606066,-3.4400425,-119.27945,-4.82953,-2.7854755,-0.20967704,0.1462304,0.0025881724,-198.96866
22:22:04.939;-0.39216286,-0.6845797,8.063713,-0.23589253,0.013196826,-0.36868536,-24.214754,-1.5056683,17.247124,-199.21756,0.0,0.0,0.0,0.0,1001.22,26.0,100.64157,192.55618,103.74294,100.64157,-3.474883,-3.4604967,-120.84789,-4.8468647,-2.7743099,-0.21651793,0.1466131,0.027296688,-199.0394
22:22:04.968;-0.40566763,-0.71621555,8.067535,-0.23589253,-0.10887349,-0.42972052,-24.192604,-1.4437346,17.256899,-199.36044,0.0,0.0,0.0,0.0,1001.07996,26.0,101.81738,192.48708,103.742256,101.81738,-3.499329,-3.4897842,-122.39901,-5.066907,-2.8673759,-0.22335881,0.14345577,0.016604813,-199.21756
22:22:05.000;-0.43179435,-0.703217,8.070593,-0.17485738,0.013196826,0.85201776,-24.156483,-1.5781877,17.28312,-199.03769,0.0,0.0,0.0,0.0,1001.19995,26.0,100.80804,192.48708,103.742256,100.80804,-3.5249264,-3.5150337,-123.93544,-4.9727144,-3.0509913,-0.22895424,0.14387807,0.0028537558,-199.36044
22:22:05.028;-0.42971137,-0.7081411,8.080701,-0.23589253,0.07423198,-0.12454474,-24.127586,-1.6857502,17.304096,-198.77896,0.0,0.0,0.0,0.0,1001.13995,26.0,101.312706,192.55618,103.74294,101.312706,-3.5512302,-3.5388162,-125.41131,-5.001212,-3.0323787,-0.23555923,0.14595656,0.026710253,-199.03769
22:22:05.060;-0.4740137,-0.71974176,8.10411,0.06928325,0.1963023,-0.7348963,-24.178068,-1.7166002,17.284077,-198.71454,0.0,0.0,0.0,0.0,1001.07996,26.0,101.81738,192.55618,103.74294,101.81738,-3.5671315,-3.5561273,-126.856514,-5.06662,-3.3343523,-0.23327288,0.15243454,0.022600276,-198.77896
22:22:05.095;-0.44816396,-0.69837654,8.099853,0.1303184,0.13526714,0.05856073,-24.218454,-1.7412802,17.26806,-198.66321,0.0,0.0,0.0,0.0,1001.19995,26.0,100.80804,190.06802,103.71806,100.80804,-3.578943,-3.5658298,-128.29672,-4.9204173,-3.1552575,-0.22871174,0.1571689,-0.0031210948,-198.71454
22:22:05.125;-0.4657914,-0.71193016,8.088785,0.008248091,0.013196826,0.6689123,-24.232363,-1.7058241,17.29205,-198.74896,0.0,0.0,0.0,0.0,1001.13995,26.0,101.312706,190.06802,103.71806,101.312706,-3.5947032,-3.5880823,-129.70538,-5.0216203,-3.2830648,-0.22846429,0.1575648,-0.0013642729,-198.66321
22:22:05.152;-0.47223192,-0.7304345,8.102916,-0.11382222,0.013196826,-0.49075568,-24.24349,-1.6774594,17.31124,-198.8175,0.0,0.0,0.0,0.0,1001.1,26.0,101.64828,190.06802,103.71806,101.64828,-3.6221786,-3.615825,-131.06989,-5.142307,-3.3219433,-0.23153749,0.15792112,0.01669636,-198.74896
22:22:05.244;-0.47738433,-0.7528994,8.098898,-0.052787066,-0.04783833,0.18063104,-24.252392,-1.6547675,17.326591,-198.87231,0.0,0.0,0.0,0.0,1001.25995,26.0,100.30336,192.48708,103.742256,100.30336,-3.6509447,-3.64637,-132.42146,-5.301984,-3.35891,-0.23296274,0.15662949,0.003445956,-198.8175
22:22:05.315;-0.4738448,-0.747887,8.095683,-0.052787066,0.07423198,0.7909826,-24.241114,-1.599814,17.320473,-198.99982,0.0,0.0,0.0,0.0,1001.22,26.0,100.64157,192.55618,103.74294,100.64157,-3.6832213,-3.6700847,-133.73206,-5.2690916,-3.335561,-0.23744965,0.1629392,0.018799596,-198.87231
22:22:05.324;-0.46335173,-0.7515385,8.100773,0.008248091,-0.2309438,-0.55179083,-24.213692,-1.5190512,17.315578,-199.18588,0.0,0.0,0.0,0.0,1001.22,26.0,100.64157,9999999.0,100.64157,9999999.0,-3.7020414,-3.7065477,-134.97327,-5.291768,-3.2596958,-0.236963,0.14931352,0.065467566,-198.99982
22:22:05.354;-0.46261874,-0.7391368,8.112506,-0.17485738,0.013196826,0.30270135,-24.191753,-1.454441,17.311663,-199.33508,0.0,0.0,0.0,0.0,1001.16,26.0,101.1436,9999999.0,101.1436,9999999.0,-3.7415073,-3.7312958,-136.20958,-5.1974926,-3.250345,-0.24220872,0.14970943,0.048913844,-199.18588
22:22:05.380;-0.439048,-0.7368769,8.106569,0.1303184,0.07423198,-0.24661505,-24.174202,-1.4027528,17.30853,-199.45465,0.0,0.0,0.0,0.0,1001.13995,26.0,101.312706,9999999.0,101.312706,9999999.0,-3.757075,-3.7417898,-137.41644,-5.186281,-3.08738,-0.23882043,0.15163946,0.05678408,-199.33508
22:22:05.442;-0.42785284,-0.74273044,8.109482,-0.052787066,0.07423198,-0.42972052,-24.196962,-1.3614022,17.342825,-199.55536,0.0,0.0,0.0,0.0,1001.16,26.0,101.1436,9999999.0,101.1436,9999999.0,-3.7735386,-3.7553086,-138.61122,-5.225773,-3.0075364,-0.24093191,0.15460874,0.046919476,-199.45465
22:22:05.463;-0.42655817,-0.7397518,8.096489,0.06928325,0.07423198,-0.24661505,-24.17837,-1.3283217,17.35186,-199.63104,0.0,0.0,0.0,0.0,1001.19995,26.0,100.80804,192.55618,103.74294,100.80804,-3.7816157,-3.7629943,-139.80182,-5.2132583,-3.0033154,-0.23802201,0.15772648,0.028871214,-199.55536
22:22:05.512;-0.43318388,-0.73736894,8.109079,0.06928325,0.013196826,-0.24661505,-24.163496,-1.3018574,17.359089,-199.69168,0.0,0.0,0.0,0.0,1001.13995,26.0,101.312706,192.55618,103.74294,101.312706,-3.788106,-3.7726026,-140.9822,-5.1883326,-3.0452716,-0.23455785,0.15838632,0.01654046,-199.63104
22:22:05.542;-0.43848446,-0.7354626,8.11149,-0.35796285,0.013196826,-0.0024744272,-24.151596,-1.3174859,17.383272,-199.6532,0.0,0.0,0.0,0.0,1001.07996,26.0,101.81738,9999999.0,101.81738,9999999.0,-3.8114913,-3.796493,-142.14767,-5.1732864,-3.0816214,-0.2456547,0.15879542,0.008895393,-199.69168
22:22:05.576;-0.43506348,-0.74159896,8.090434,0.1303184,0.07423198,0.18063104,-24.142076,-1.3299887,17.402618,-199.62238,0.0,0.0,0.0,0.0,1001.13995,26.0,101.312706,9999999.0,101.312706,9999999.0,-3.821072,-3.8036287,-143.28914,-5.229792,-3.0652926,-0.24148451,0.16117084,0.0088162115,-199.6532
22:22:05.603;-0.43232667,-0.73884666,8.088912,-0.052787066,-0.04783833,-0.24661505,-24.17126,-1.321591,17.399694,-199.64603,0.0,0.0,0.0,0.0,1001.22,26.0,100.64157,9999999.0,100.64157,9999999.0,-3.833184,-3.8187203,-144.40239,-5.211556,-3.0467076,-0.24290976,0.15987921,0.01369325,-199.62238
22:22:05.638;-0.42247579,-0.7366448,8.087694,-0.11382222,0.07423198,0.05856073,-24.194609,-1.3148729,17.397356,-199.66492,0.0,0.0,0.0,0.0,1001.16,26.0,101.1436,9999999.0,101.1436,9999999.0,-3.850306,-3.8302395,-145.50253,-5.1972175,-2.9779296,-0.24700736,0.16255155,0.004815108,-199.64603
22:22:05.688;-0.42991796,-0.72722185,8.08672,-0.052787066,0.13526714,-0.1855799,-24.194887,-1.2910982,17.395485,-199.72107,0.0,0.0,0.0,0.0,1001.07996,26.0,101.81738,9999999.0,101.81738,9999999.0,-3.8581781,-3.8367293,-146.57893,-5.131459,-3.0309684,-0.24896048,0.16755643,0.0069818553,-199.66492
22:22:05.715;-0.42821026,-0.72734493,8.070619,-0.052787066,0.13526714,0.05856073,-24.19511,-1.2720786,17.393988,-199.76602,0.0,0.0,0.0,0.0,1001.07996,26.0,101.81738,9999999.0,101.81738,9999999.0,-3.864708,-3.84314,-147.64148,-5.1425366,-3.0249107,-0.2508608,0.17242604,3.0097924E-4,-199.72107
22:22:05.738;-0.41918266,-0.7274434,8.07306,0.06928325,0.13526714,-0.06350958,-24.176888,-1.2568629,17.39279,-199.79971,0.0,0.0,0.0,0.0,1001.13995,26.0,101.312706,9999999.0,101.312706,9999999.0,-3.8672836,-3.845566,-148.68213,-5.1419854,-2.9603636,-0.24899016,0.17607826,0.001882119,-199.76602
22:22:05.768;-0.41962203,-0.7351836,8.075013,-0.23589253,0.013196826,-0.12454474,-24.16231,-1.2446903,17.391832,-199.82672,0.0,0.0,0.0,0.0,1001.07996,26.0,101.81738,9999999.0,101.81738,9999999.0,-3.8794925,-3.8607645,-149.70451,-5.1951385,-2.9624968,-0.25606695,0.17647417,-2.3168512E-5,-199.79971
22:22:05.796;-0.41997352,-0.7413758,8.084237,0.008248091,-0.04783833,0.05856073,-24.187449,-1.2349522,17.372665,-199.85278,0.0,0.0,0.0,0.0,1001.19995,26.0,100.80804,9999999.0,100.80804,9999999.0,-3.887977,-3.8707585,-150.7104,-5.232713,-2.9614196,-0.255836,0.17513469,-0.0035104214,-199.82672
22:22:05.823;-0.42791617,-0.7386681,8.091616,0.1303184,0.13526714,-0.12454474,-24.20756,-1.2271618,17.357332,-199.8736,0.0,0.0,0.0,0.0,1001.13995,26.0,101.312706,9999999.0,101.312706,9999999.0,-3.8940697,-3.8729029,-151.69514,-5.2087264,-3.014692,-0.2523174,0.1787869,-0.0019292816,-199.85278
22:22:05.848;-0.4342703,-0.7288405,8.105181,-0.052787066,0.1963023,0.119595885,-24.205248,-1.2209294,17.363466,-199.88803,0.0,0.0,0.0,0.0,1001.16,26.0,101.1436,9999999.0,101.1436,9999999.0,-3.8994112,-3.877514,-152.66379,-5.131056,-3.0546362,-0.25368986,0.18389076,-0.0051674447,-199.8736
22:22:05.878;-0.43169212,-0.7363013,8.10071,-0.052787066,0.13526714,-0.0024744272,-24.203398,-1.2159435,17.368374,-199.8996,0.0,0.0,0.0,0.0,1001.19995,26.0,100.80804,9999999.0,100.80804,9999999.0,-3.9052398,-3.8839169,-153.60983,-5.18622,-3.0379443,-0.25527346,0.18794878,-0.0015795683,-199.88803
22:22:05.906;-0.43729106,-0.73460853,8.1047945,-0.17485738,0.1963023,-0.06350958,-24.201918,-1.2119547,17.3723,-199.90884,0.0,0.0,0.0,0.0,1001.19995,26.0,100.80804,9999999.0,100.80804,9999999.0,-3.9144683,-3.8923082,-154.53725,-5.1715856,-3.0757928,-0.26016948,0.19344524,-0.0016488523,-199.8996
22:22:05.934;-0.4264473,-0.72559285,8.100401,-0.17485738,0.13526714,0.05856073,-24.182335,-1.2087637,17.357038,-199.91406,0.0,0.0,0.0,0.0,1001.1,26.0,101.64828,9999999.0,101.64828,9999999.0,-3.9213202,-3.899346,-155.44797,-5.1115637,-3.0015707,-0.2648906,0.19709745,-0.0033636112,-199.90884
22:22:05.964;-0.4330952,-0.7337032,8.112208,0.1303184,0.013196826,-0.06350958,-24.166668,-1.206211,17.344831,-199.91824,0.0,0.0,0.0,0.0,1001.16,26.0,101.1436,9999999.0,101.1436,9999999.0,-3.9207418,-3.902811,-156.33885,-5.160707,-3.0436103,-0.26098105,0.19749336,-0.0016067893,-199.91406
22:22:05.999;-0.43075204,-0.74019146,8.113993,-0.052787066,0.13526714,0.18063104,-24.172535,-1.2041688,17.353466,-199.92377,0.0,0.0,0.0,0.0,1001.06,26.0,101.98649,9999999.0,101.98649,9999999.0,-3.9306662,-3.9079392,-157.2142,-5.2050385,-3.0262976,-0.2628286,0.20222771,-0.0038296245,-199.91824
22:22:06.036;-0.42887753,-0.7453821,8.11542,0.19135356,0.1963023,-0.06350958,-24.177229,-1.202535,17.360373,-199.92819,0.0,0.0,0.0,0.0,1001.22,26.0,100.64157,9999999.0,100.64157,9999999.0,-3.927839,-3.9026058,-158.06578,-5.2404857,-3.012453,-0.25593987,0.20929459,0.0026730928,-199.92377
22:22:06.064;-0.43503937,-0.74187315,8.108901,-0.11382222,0.07423198,-0.0024744272,-24.180983,-1.201228,17.347498,-199.9317,0.0,0.0,0.0,0.0,1001.13995,26.0,101.312706,9999999.0,101.312706,9999999.0,-3.9321866,-3.9125974,-158.90222,-5.219901,-3.0582042,-0.25924072,0.21144731,8.3131494E-4,-199.92819
22:22:06.097;-0.4323074,-0.739066,8.111347,-0.23589253,0.13526714,0.05856073,-24.183987,-1.2001824,17.337198,-199.93454,0.0,0.0,0.0,0.0,1001.13995,26.0,101.312706,9999999.0,101.312706,9999999.0,-3.94595,-3.9234207,-159.72208,-5.198796,-3.0382233,-0.26702517,0.21591114,7.4965885E-4,-199.9317
22:22:06.124;-0.43778327,-0.7368203,8.097981,-0.052787066,0.13526714,-0.06350958,-24.16799,-1.236146,17.347359,-199.8476,0.0,0.0,0.0,0.0,1001.19995,26.0,100.80804,9999999.0,100.80804,9999999.0,-3.9501765,-3.9292288,-160.52403,-5.191382,-3.0817373,-0.2684504,0.21956335,0.0023307987,-199.93454
22:22:06.152;-0.44216397,-0.7273622,8.102612,-0.11382222,0.07423198,-0.1855799,-24.155191,-1.2649168,17.355488,-199.77802,0.0,0.0,0.0,0.0,1001.16,26.0,101.1436,9999999.0,101.1436,9999999.0,-3.9562082,-3.9372687,-161.30997,-5.122047,-3.1110787,-0.27163744,0.22164184,5.525303E-4,-199.8476
22:22:06.185;-0.43034562,-0.7274572,8.098654,-0.11382222,0.13526714,0.05856073,-24.144953,-1.2511334,17.32519,-199.80936,0.0,0.0,0.0,0.0,1001.07996,26.0,101.81738,9999999.0,101.81738,9999999.0,-3.9646049,-3.9416616,-162.08461,-5.125595,-3.0295434,-0.27527976,0.22597039,-0.0053860266,-199.77802
22:22:06.214;-0.4285524,-0.7351947,8.103149,-0.11382222,0.07423198,0.05856073,-24.136763,-1.2401067,17.300951,-199.83444,0.0,0.0,0.0,0.0,1001.07996,26.0,101.81738,9999999.0,101.81738,9999999.0,-3.969715,-3.948439,-162.84267,-5.177027,-3.0150282,-0.27869442,0.22819735,-0.0036292048,-199.80936
22:22:06.246;-0.43477926,-0.764369,8.114408,0.008248091,0.37940776,0.119595885,-24.20381,-1.3416854,17.318361,-199.60281,0.0,0.0,0.0,0.0,1001.19995,26.0,100.80804,192.48708,103.742256,100.80804,-3.9766846,-3.9463236,-163.58423,-5.373662,-3.0535486,-0.2784305,0.2403384,-0.0017552614,-199.83444
22:22:06.281;-0.43976074,-0.76472414,8.123414,-0.052787066,-0.04783833,-0.24661505,-24.257448,-1.4229484,17.332289,-199.41849,0.0,0.0,0.0,0.0,1001.07996,26.0,101.81738,192.55618,103.74294,101.81738,-3.9764538,-3.9601264,-164.30257,-5.3700595,-3.0850673,-0.2801197,0.23880757,0.0020718072,-199.60281
22:22:06.327;-0.44374594,-0.74968535,8.107635,-0.17485738,0.07423198,-0.0024744272,-24.24516,-1.5247587,17.25143,-199.1771,0.0,0.0,0.0,0.0,1001.16,26.0,101.1436,192.55618,103.74294,101.1436,-3.994822,-3.9737508,-165.0147,-5.275073,-3.119498,-0.2886877,0.24244495,-0.0100123305,-199.41849
22:22:06.382;-0.4469341,-0.76063865,8.102673,-0.17485738,-0.10887349,0.119595885,-24.235327,-1.5878069,17.186745,-199.02719,0.0,0.0,0.0,0.0,1001.22,26.0,100.64157,192.55618,103.74294,100.64157,-4.010626,-3.9990425,-165.70789,-5.354834,-3.1433778,-0.29813,0.23656578,-0.010145949,-199.1771
22:22:06.410;-0.4265003,-0.7540784,8.106364,-0.052787066,0.1963023,-0.12454474,-24.22746,-1.6382456,17.134996,-198.90723,0.0,0.0,0.0,0.0,1001.1,26.0,101.64828,9999999.0,101.64828,9999999.0,-4.026706,-4.000569,-166.38083,-5.3072333,-2.998804,-0.29966083,0.24225855,-0.0066776685,-199.02719
22:22:06.447;-0.44079903,-0.7488302,8.101656,-0.23589253,0.07423198,-0.1855799,-24.257969,-1.6601965,17.111998,-198.86044,0.0,0.0,0.0,0.0,1001.13995,26.0,101.312706,190.06802,103.71806,101.312706,-4.0345716,-4.013211,-167.04242,-5.2730484,-3.1011147,-0.30838886,0.24500513,-0.011285824,-198.90723
22:22:06.475;-0.45989946,-0.7293087,8.090228,-0.23589253,0.07423198,0.119595885,-24.282375,-1.6777573,17.093597,-198.82315,0.0,0.0,0.0,0.0,1001.16,26.0,101.1436,190.06802,103.71806,101.1436,-4.042277,-4.0242033,-167.69493,-5.1428537,-3.2404392,-0.31499386,0.24708362,-0.01648206,-198.86044
22:22:06.503;-0.4905027,-0.7443373,8.104071,0.06928325,0.3183726,-0.1855799,-24.3019,-1.6918058,17.078878,-198.79333,0.0,0.0,0.0,0.0,1001.07996,26.0,101.81738,190.06802,103.71806,101.81738,-4.046582,-4.0258975,-168.33037,-5.238209,-3.449146,-0.31305394,0.25599805,-0.013133376,-198.82315
22:22:06.532;-0.46135515,-0.7486988,8.115145,-0.052787066,-0.10887349,-0.12454474,-24.31752,-1.7214447,17.085503,-198.72641,0.0,0.0,0.0,0.0,1001.19995,26.0,100.80804,192.55618,103.74294,100.80804,-4.0520825,-4.0388303,-168.95758,-5.2627053,-3.2400966,-0.31453198,0.2529496,-0.018329613,-198.79333
22:22:06.556;-0.44569856,-0.7521879,8.108681,0.008248091,-0.04783833,-0.0024744272,-24.330015,-1.7451558,17.090801,-198.67291,0.0,0.0,0.0,0.0,1001.16,26.0,101.1436,192.55618,103.74294,101.1436,-4.06368,-4.0462794,-169.57408,-5.291836,-3.1327088,-0.31431752,0.2517058,-0.021567777,-198.72641
22:22:06.585;-0.4484962,-0.7779636,8.126493,0.008248091,0.1963023,-0.24661505,-24.229612,-1.5801246,17.150242,-199.0444,0.0,0.0,0.0,0.0,1001.13995,26.0,101.312706,192.55618,103.74294,101.312706,-4.07433,-4.0503483,-170.17726,-5.460103,-3.144567,-0.3140866,0.25720227,-0.021637062,-198.67291
22:22:06.621;-0.4507343,-0.7679383,8.11776,0.06928325,0.013196826,-0.0024744272,-24.14929,-1.4480997,17.197794,-199.34402,0.0,0.0,0.0,0.0,1001.19995,26.0,100.80804,192.55618,103.74294,100.80804,-4.0748134,-4.056131,-170.7845,-5.395824,-3.1639576,-0.3115924,0.25767735,-0.030515203,-199.0444
22:22:06.653;-0.4601862,-0.7905639,8.126096,-0.11382222,0.013196826,0.48580682,-24.140232,-1.3976798,17.235836,-199.462,0.0,0.0,0.0,0.0,1001.07996,26.0,101.81738,192.55618,103.74294,101.81738,-4.0894227,-4.0717545,-171.38567,-5.547817,-3.2260377,-0.31512088,0.25808644,-0.03059191,-199.34402
22:22:06.681;-0.46008632,-0.7780186,8.125103,0.008248091,-0.04783833,-0.42972052,-24.132986,-1.3573438,17.26627,-199.55646,0.0,0.0,0.0,0.0,1001.19995,26.0,100.80804,192.48708,103.742256,100.80804,-4.099304,-4.083202,-171.96338,-5.4609814,-3.2262037,-0.31488168,0.25669914,-0.016503513,-199.462
22:22:06.717;-0.45234495,-0.7833052,8.116648,-0.11382222,0.13526714,-0.3076502,-24.12719,-1.3066751,17.272215,-199.67563,0.0,0.0,0.0,0.0,1001.07996,26.0,101.81738,192.55618,103.74294,101.81738,-4.1156297,-4.0920467,-172.54655,-5.503828,-3.1751027,-0.3189793,0.26156875,-0.03197345,-199.55646
22:22:06.750;-0.44615185,-0.7798731,8.109883,0.008248091,0.07423198,0.42477167,-24.122551,-1.2661401,17.276972,-199.77106,0.0,0.0,0.0,0.0,1001.13995,26.0,101.312706,192.55618,103.74294,101.312706,-4.1196475,-4.0976877,-173.12982,-5.484618,-3.1344285,-0.3187236,0.26386994,-0.041510608,-199.67563
22:22:06.778;-0.43353593,-0.76180446,8.112133,0.008248091,0.25733745,-0.1855799,-24.118841,-1.2337121,17.280777,-199.84741,0.0,0.0,0.0,0.0,1001.19995,26.0,100.80804,192.55618,103.74294,100.80804,-4.122637,-4.093534,-173.69084,-5.3572702,-3.045767,-0.31847614,0.27159005,-0.02876746,-199.77106
22:22:06.806;-0.44642752,-0.755011,8.113933,-0.052787066,0.013196826,-0.3076502,-24.115873,-1.2077696,17.283821,-199.90854,0.0,0.0,0.0,0.0,1001.13995,26.0,101.312706,192.55618,103.74294,101.312706,-4.119223,-4.0992036,-174.24709,-5.30815,-3.1357124,-0.31990138,0.27194637,-0.033778116,-199.84741
22:22:06.835;-0.44141793,-0.75723773,8.107711,0.008248091,0.25733745,0.546842,-24.113499,-1.1870157,17.286257,-199.95746,0.0,0.0,0.0,0.0,1001.1,26.0,101.64828,189.9989,103.71737,101.64828,-4.1235356,-4.0955567,-174.80247,-5.3279433,-3.1028695,-0.31965393,0.27966648,-0.043007623,-199.90854
22:22:06.862;-0.43741024,-0.7590191,8.102734,-0.23589253,0.07423198,-0.3076502,-24.093199,-1.1520126,17.306606,-200.03812,0.0,0.0,0.0,0.0,1001.1,26.0,101.64828,190.06802,103.71806,101.64828,-4.1267633,-4.103722,-175.33272,-5.343798,-3.0765586,-0.326023,0.281745,-0.027696047,-199.95746
22:22:06.893;-0.44186553,-0.7527827,8.114075,-0.052787066,0.07423198,-0.1855799,-24.07696,-1.1240101,17.322886,-200.10278,0.0,0.0,0.0,0.0,1001.13995,26.0,101.312706,190.06802,103.71806,101.312706,-4.129104,-4.106415,-175.86302,-5.292642,-3.1037564,-0.3276594,0.28397194,-0.036925554,-200.03812
22:22:06.926;-0.44542977,-0.7477936,8.107824,-0.11382222,0.13526714,0.119595885,-24.082367,-1.101608,17.317509,-200.15656,0.0,0.0,0.0,0.0,1001.1,25.9,101.64828,190.06802,103.71806,101.64828,-4.1332006,-4.108788,-176.39,-5.2616553,-3.131306,-0.33141553,0.28843576,-0.04304969,-200.10278
22:22:06.953;-0.4406197,-0.7514638,8.102824,-0.052787066,0.13526714,-0.12454474,-24.086693,-1.0836865,17.313208,-200.19955,0.0,0.0,0.0,0.0,1001.19995,26.0,100.80804,190.06802,103.71806,100.80804,-4.1338234,-4.1095543,-176.90436,-5.290738,-3.0993211,-0.33284077,0.29208797,-0.0398206,-200.15656
22:22:06.986;-0.42911023,-0.7467385,8.106485,0.008248091,0.13526714,-0.0024744272,-24.108555,-1.0877491,17.309767,-200.19226,0.0,0.0,0.0,0.0,1001.16,26.0,101.1436,192.55618,103.74294,101.1436,-4.1322513,-4.106241,-177.41269,-5.255699,-3.0173268,-0.33260983,0.29587546,-0.043307852,-200.19955
22:22:07.013;-0.42756408,-0.7506197,8.101753,0.06928325,-0.10887349,0.18063104,-24.126043,-1.0909992,17.307013,-200.18643,0.0,0.0,0.0,0.0,1001.19995,26.0,100.80804,192.48708,103.742256,100.80804,-4.127663,-4.1086855,-177.9108,-5.285974,-3.0080812,-0.33039278,0.2923915,-0.043387033,-200.19226
22:22:07.041;-0.42632717,-0.7537247,8.105629,0.1303184,0.013196826,-0.12454474,-24.140036,-1.0935994,17.32321,-200.18176,0.0,0.0,0.0,0.0,1001.1,26.0,101.64828,192.48708,103.742256,101.64828,-4.1290407,-4.1060553,-178.39388,-5.305241,-2.99787,-0.32674387,0.29276103,-0.038329363,-200.18643
22:22:07.078;-0.43299907,-0.7485472,8.116391,-0.17485738,0.07423198,-0.06350958,-24.151228,-1.0956795,17.336168,-200.17804,0.0,0.0,0.0,0.0,1001.16,26.0,101.1436,192.48708,103.742256,101.1436,-4.1355114,-4.110927,-178.87172,-5.261849,-3.040881,-0.3332136,0.2955076,-0.042937517,-200.18176
22:22:07.102;-0.43067515,-0.7444052,8.109678,-0.052787066,-0.10887349,-0.0024744272,-24.160183,-1.0973436,17.346535,-200.17508,0.0,0.0,0.0,0.0,1001.19995,26.0,100.80804,192.48708,103.742256,100.80804,-4.1346955,-4.1151066,-179.34142,-5.2372694,-3.0272095,-0.3344805,0.29289463,-0.044461746,-200.17804
22:22:07.133;-0.42881602,-0.7487531,8.111969,-0.052787066,-0.16990864,-0.06350958,-24.167347,-1.0986749,17.336428,-200.1727,0.0,0.0,0.0,0.0,1001.13995,26.0,101.312706,192.48708,103.742256,101.312706,-4.1397333,-4.122364,-179.80173,-5.266276,-3.0131762,-0.33611688,0.28762746,-0.044538453,-200.17508
22:22:07.173;-0.41966727,-0.7598928,8.113802,-0.23589253,0.07423198,0.05856073,-24.173079,-1.0997399,17.328342,-200.17078,0.0,0.0,0.0,0.0,1001.19995,26.0,100.80804,192.55618,103.74294,100.80804,-4.1557984,-4.128805,-180.25522,-5.3432913,-2.9479733,-0.34531668,0.29052252,-0.047015328,-200.1727
22:22:07.298;-0.42767116,-0.7458203,8.099945,0.06928325,-0.2309438,0.05856073,-24.140863,-1.082192,17.340275,-200.2089,0.0,0.0,0.0,0.0,1001.19995,26.0,100.80804,9999999.0,100.80804,9999999.0,-4.1428127,-4.1484404,-180.69243,-5.2535243,-3.009661,-0.33665627,0.26165456,-0.039695237,-200.17078
22:22:07.335;-0.43407428,-0.7422237,8.096521,0.008248091,-0.10887349,-0.06350958,-24.151892,-1.0865536,17.34982,-200.1997,0.0,0.0,0.0,0.0,1001.19995,26.0,100.80804,9999999.0,100.80804,9999999.0,-4.169803,-4.1511555,-181.11972,-5.230305,-3.0560389,-0.33637583,0.25795287,-0.037704173,-200.2089
22:22:07.390;-0.43153533,-0.7393464,8.093782,-0.11382222,-0.04783833,-0.06350958,-24.142313,-1.0900428,17.357456,-200.19043,0.0,0.0,0.0,0.0,1001.13995,26.0,101.312706,9999999.0,101.312706,9999999.0,-4.1789527,-4.158926,-181.54196,-5.211976,-3.0393128,-0.34309134,0.2551304,-0.041451238,-200.1997
22:22:07.426;-0.42184272,-0.74470603,8.106914,-0.11382222,0.013196826,-0.0024744272,-24.134651,-1.0928342,17.363565,-200.18301,0.0,0.0,0.0,0.0,1001.16,26.0,101.1436,9999999.0,101.1436,9999999.0,-4.184592,-4.1597595,-181.95778,-5.241444,-2.9662294,-0.34718895,0.2556055,-0.043737583,-200.19043
22:22:07.477;-0.41408864,-0.74899375,8.117418,0.008248091,0.13526714,0.05856073,-24.128521,-1.0766674,17.368452,-200.22067,0.0,0.0,0.0,0.0,1001.19995,26.0,100.80804,9999999.0,100.80804,9999999.0,-4.1814594,-4.1493607,-182.36526,-5.264944,-2.9079304,-0.34677655,0.26236886,-0.043861303,-200.18301
22:22:07.508;-0.4155468,-0.7524239,8.110499,-0.052787066,0.13526714,-0.06350958,-24.123617,-1.0637339,17.372362,-200.2508,0.0,0.0,0.0,0.0,1001.19995,26.0,100.80804,9999999.0,100.80804,9999999.0,-4.1738443,-4.144668,-182.76358,-5.2933455,-2.9205036,-0.34841293,0.26656213,-0.04204592,-200.22067
22:22:07.544;-0.41671336,-0.74750656,8.112626,-0.17485738,0.07423198,-0.06350958,-24.119694,-1.0717871,17.35709,-200.2313,0.0,0.0,0.0,0.0,1001.16,26.0,101.1436,9999999.0,101.1436,9999999.0,-4.1730943,-4.1455755,-183.15675,-5.2575407,-2.9280903,-0.3547078,0.26923448,-0.044332266,-200.2508
22:22:07.577;-0.4176466,-0.7512342,8.114327,-0.17485738,0.13526714,0.18063104,-24.134954,-1.0598297,17.363272,-200.26123,0.0,0.0,0.0,0.0,1001.1,26.0,101.64828,9999999.0,101.64828,9999999.0,-4.1739683,-4.1447926,-183.54375,-5.282481,-2.9339042,-0.3604781,0.2736983,-0.04642808,-200.2313
22:22:07.615;-0.42605463,-0.7465548,8.115688,-0.11382222,0.07423198,-0.0024744272,-24.147163,-1.0502638,17.368217,-200.28516,0.0,0.0,0.0,0.0,1001.13995,26.0,101.312706,9999999.0,101.312706,9999999.0,-4.1709957,-4.1447344,-183.91705,-5.248608,-2.992524,-0.36468953,0.27644488,-0.03974473,-200.26123
22:22:07.639;-0.4251196,-0.73514986,8.124438,0.06928325,0.1963023,-0.12454474,-24.15693,-1.061011,17.353773,-200.26071,0.0,0.0,0.0,0.0,1001.16,26.0,101.1436,9999999.0,101.1436,9999999.0,-4.1634774,-4.1352544,-184.28342,-5.1633735,-2.9831634,-0.36302674,0.28115612,-0.039804116,-200.28516
22:22:07.683;-0.43203303,-0.73368734,8.131438,-0.11382222,0.1963023,-0.12454474,-24.164745,-1.0696088,17.342218,-200.24118,0.0,0.0,0.0,0.0,1001.13995,25.9,101.312706,9999999.0,101.312706,9999999.0,-4.1606507,-4.12917,-184.64758,-5.1485276,-3.0290515,-0.36826256,0.29018602,-0.045533173,-200.26071
22:22:07.715;-0.42990232,-0.73251736,8.137038,0.008248091,-0.04783833,0.18063104,-24.152596,-1.0764871,17.332975,-200.22363,0.0,0.0,0.0,0.0,1001.1,26.0,101.64828,9999999.0,101.64828,9999999.0,-4.1490903,-4.127711,-185.00763,-5.1369233,-3.0121253,-0.36802337,0.28879872,-0.04914497,-200.24118
22:22:07.746;-0.4358592,-0.7392428,8.126196,-0.11382222,-0.04783833,0.119595885,-24.142876,-1.0819896,17.32558,-200.20956,0.0,0.0,0.0,0.0,1001.13995,26.0,101.312706,9999999.0,101.312706,9999999.0,-4.152759,-4.13245,-185.3541,-5.1904893,-3.057591,-0.37189332,0.28717223,-0.043003514,-200.22363
22:22:07.779;-0.43296325,-0.7369617,8.117521,0.008248091,0.013196826,-0.06350958,-24.153502,-1.0679917,17.319664,-200.24384,0.0,0.0,0.0,0.0,1001.13995,26.0,101.312706,9999999.0,101.312706,9999999.0,-4.1531453,-4.1304803,-185.68959,-5.1801424,-3.0406039,-0.3716294,0.28759453,-0.039176445,-200.20956
22:22:07.812;-0.42298505,-0.73513687,8.118243,-0.052787066,0.07423198,0.05856073,-24.162,-1.0567935,17.314932,-200.27124,0.0,0.0,0.0,0.0,1001.32,26.0,99.79868,9999999.0,99.79868,9999999.0,-4.1530266,-4.126829,-186.02124,-5.167261,-2.9704545,-0.37347692,0.29019263,-0.04139928,-200.24384
22:22:07.846;-0.42266393,-0.7413384,8.126482,-0.23589253,0.07423198,0.05856073,-24.1688,-1.0478348,17.311146,-200.29312,0.0,0.0,0.0,0.0,1001.19995,26.0,100.80804,9999999.0,100.80804,9999999.0,-4.1560287,-4.129808,-186.34491,-5.205384,-2.9650204,-0.38126138,0.2926423,-0.039466776,-200.27124
22:22:07.880;-0.42240703,-0.7462996,8.11775,0.1303184,0.13526714,-0.12454474,-24.17424,-1.0406678,17.308117,-200.31064,0.0,0.0,0.0,0.0,1001.16,26.0,101.1436,9999999.0,101.1436,9999999.0,-4.1479096,-4.119901,-186.66066,-5.2456245,-2.9662125,-0.37696087,0.29710612,-0.03753427,-200.29312
22:22:07.910;-0.4222015,-0.75793004,8.103104,0.06928325,0.013196826,0.119595885,-24.160192,-1.0349343,17.287294,-200.32278,0.0,0.0,0.0,0.0,1001.19995,26.0,100.80804,9999999.0,100.80804,9999999.0,-4.1421275,-4.1182775,-186.97423,-5.3364606,-2.9696846,-0.37481308,0.2975152,-0.041395158,-200.31064
22:22:07.956;-0.42203712,-0.7519115,8.1067095,0.008248091,0.07423198,-0.06350958,-24.148954,-1.0303475,17.270636,-200.33252,0.0,0.0,0.0,0.0,1001.16,26.0,101.1436,9999999.0,101.1436,9999999.0,-4.1414285,-4.115039,-187.27707,-5.291997,-2.9674268,-0.37448317,0.30048448,-0.036611322,-200.32278
22:22:08.000;-0.4219056,-0.7624196,8.109594,-0.052787066,0.25733745,-0.06350958,-24.176764,-1.026678,17.27571,-200.344,0.0,0.0,0.0,0.0,1001.13995,25.9,101.312706,9999999.0,101.312706,9999999.0,-4.142545,-4.106639,-187.5771,-5.363637,-2.9651043,-0.37706974,0.31309402,-0.039723292,-200.33252
22:22:08.039;-0.42180037,-0.74784166,8.111902,-0.11382222,0.07423198,-0.1855799,-24.14381,-1.0421424,17.261368,-200.30405,0.0,0.0,0.0,0.0,1001.27997,26.0,100.136894,9999999.0,100.136894,9999999.0,-4.1341715,-4.1078587,-187.87387,-5.260181,-2.9640222,-0.38162264,0.31606328,-0.042263675,-200.344
22:22:08.308;-0.42937765,-0.7438408,8.106087,0.008248091,0.3183726,-0.12454474,-24.117449,-1.0545139,17.268293,-200.272,0.0,0.0,0.0,0.0,1001.1,25.9,101.64828,9999999.0,101.64828,9999999.0,-4.12824,-4.022135,-188.2128,-5.2356644,-3.0194488,-0.37940392,0.4017055,-0.09218466,-200.30405
22:22:08.336;-0.43543947,-0.7406401,8.116757,0.008248091,0.07423198,0.119595885,-24.09636,-1.0644112,17.273834,-200.24634,0.0,0.0,0.0,0.0,1001.13995,25.9,101.312706,9999999.0,101.312706,9999999.0,-4.045599,-4.0238853,-188.54762,-5.206258,-3.0581207,-0.3791812,0.40370977,-0.09554737,-200.272
22:22:08.363;-0.44028893,-0.73807955,8.109971,0.1303184,0.1963023,0.18063104,-24.116287,-1.053929,17.278267,-200.27328,0.0,0.0,0.0,0.0,1001.13995,25.9,101.312706,9999999.0,101.312706,9999999.0,-4.0438094,-4.0196347,-188.87207,-5.192496,-3.0947623,-0.3756626,0.40900993,-0.09231828,-200.24634
22:22:08.396;-0.43650705,-0.7360311,8.104542,-0.052787066,0.13526714,-0.06350958,-24.13223,-1.0455432,17.281813,-200.2948,0.0,0.0,0.0,0.0,1001.13995,26.0,101.312706,9999999.0,101.312706,9999999.0,-4.0444283,-4.02097,-189.18526,-5.181733,-3.0703354,-0.3772462,0.41306794,-0.08689935,-200.27328
22:22:08.427;-0.42582008,-0.7420538,8.10786,-0.11382222,0.13526714,0.119595885,-24.144985,-1.0388346,17.28465,-200.31201,0.0,0.0,0.0,0.0,1001.13995,25.9,101.312706,9999999.0,101.312706,9999999.0,-4.048674,-4.023204,-189.49466,-5.222143,-2.993889,-0.38100234,0.41753176,-0.088995166,-200.2948
22:22:08.456;-0.42493197,-0.74687195,8.110514,-0.11382222,0.1963023,-0.0024744272,-24.11839,-1.0334677,17.28692,-200.32202,0.0,0.0,0.0,0.0,1001.13995,25.9,101.312706,9999999.0,101.312706,9999999.0,-4.0512815,-4.0240226,-189.79459,-5.254185,-2.9865272,-0.3845308,0.42361712,-0.08528769,-200.31201
22:22:08.491;-0.43954438,-0.75072646,8.104976,-0.11382222,-0.04783833,-0.12454474,-24.09711,-1.0291741,17.288736,-200.33005,0.0,0.0,0.0,0.0,1001.13995,25.9,101.312706,9999999.0,101.312706,9999999.0,-4.0529075,-4.0352163,-190.0888,-5.284223,-3.0909855,-0.38828695,0.42203847,-0.08536935,-200.32202
22:22:08.508;-0.44357285,-0.75381005,8.115869,-0.052787066,0.07423198,0.05856073,-24.08009,-1.0441393,17.29019,-200.29279,0.0,0.0,0.0,0.0,1001.22,26.0,100.64157,9999999.0,100.64157,9999999.0,-4.0614667,-4.0411553,-190.37961,-5.2986026,-3.1150076,-0.38928992,0.42344886,-0.0877357,-200.33005
22:22:08.542;-0.43147272,-0.7486155,8.116921,0.008248091,0.1963023,-0.06350958,-24.066471,-1.0561115,17.291351,-200.26291,0.0,0.0,0.0,0.0,1001.16,26.0,101.1436,9999999.0,101.1436,9999999.0,-4.0653143,-4.0384517,-190.66202,-5.2620378,-3.0299833,-0.389026,0.42973053,-0.08586176,-200.29279
22:22:08.572;-0.4294541,-0.74445987,8.1177635,-0.2969277,0.07423198,-0.0024744272,-24.092377,-1.0840892,17.31068,-200.19922,0.0,0.0,0.0,0.0,1001.22,25.9,100.64157,9999999.0,100.64157,9999999.0,-4.0716443,-4.048197,-190.94017,-5.23252,-3.0156648,-0.39852768,0.43210596,-0.08789407,-200.26291
22:22:08.610;-0.43550062,-0.7334739,8.110776,-0.052787066,0.07423198,-0.0024744272,-24.113102,-1.1064713,17.326145,-200.14835,0.0,0.0,0.0,0.0,1001.19995,25.9,100.80804,9999999.0,100.80804,9999999.0,-4.0723453,-4.0494275,-191.21158,-5.1599255,-3.0610254,-0.4004808,0.43485254,-0.08798562,-200.19922
22:22:08.642;-0.4326764,-0.7323466,8.1051855,-0.052787066,-0.10887349,-0.06350958,-24.111282,-1.0875771,17.320116,-200.19296,0.0,0.0,0.0,0.0,1001.22,25.9,100.64157,9999999.0,100.64157,9999999.0,-4.0732074,-4.056024,-191.47661,-5.1556573,-3.0433266,-0.40217,0.4313686,-0.088064805,-200.14835
22:22:08.659;-0.43807846,-0.7391062,8.108375,0.19135356,-0.04783833,-0.1855799,-24.109825,-1.0724617,17.315292,-200.22867,0.0,0.0,0.0,0.0,1001.16,25.9,101.1436,9999999.0,101.1436,9999999.0,-4.075918,-4.056746,-191.73824,-5.2007704,-3.0798202,-0.39910835,0.43060318,-0.08908096,-200.19296
22:22:08.677;-0.44240013,-0.7368524,8.103265,-0.17485738,0.013196826,-0.1855799,-24.10866,-1.0603694,17.311434,-200.2572,0.0,0.0,0.0,0.0,1001.16,25.9,101.1436,9999999.0,101.1436,9999999.0,-4.0826287,-4.0629735,-191.9988,-5.1880913,-3.1121626,-0.40243065,0.4308539,-0.09260698,-200.22867
22:22:08.704;-0.438196,-0.73504937,8.099176,-0.17485738,0.013196826,0.18063104,-24.126127,-1.0690955,17.308348,-200.23834,0.0,0.0,0.0,0.0,1001.16,25.9,101.1436,192.55618,103.74294,101.1436,-4.089905,-4.0694427,-192.25963,-5.1782007,-3.084247,-0.4071518,0.43121022,-0.09761763,-200.2572
22:22:08.730;-0.42717126,-0.7412684,8.103567,0.06928325,0.13526714,0.05856073,-24.140102,-1.0760764,17.305878,-200.2233,0.0,0.0,0.0,0.0,1001.22,25.9,100.64157,192.55618,103.74294,100.64157,-4.0906754,-4.0655146,-192.51027,-5.2193413,-3.0049727,-0.40535042,0.43472716,-0.09292123,-200.23834
22:22:08.755;-0.43367437,-0.73092073,8.099419,-0.052787066,0.25733745,-0.12454474,-24.132881,-1.0632612,17.322302,-200.2529,0.0,0.0,0.0,0.0,1001.19995,26.0,100.80804,192.55618,103.74294,100.80804,-4.0885344,-4.061257,-192.75409,-5.1492734,-3.052531,-0.40672287,0.44141793,-0.09139865,-200.2233
22:22:08.780;-0.4312154,-0.73030406,8.0961,-0.11382222,-0.2309438,-0.12454474,-24.127106,-1.0530089,17.335442,-200.27658,0.0,0.0,0.0,0.0,1001.19995,25.9,100.80804,192.55618,103.74294,100.80804,-4.085763,-4.070436,-192.99669,-5.1471267,-3.036508,-0.40956843,0.43564433,-0.09451227,-200.2529
22:22:08.806;-0.42158678,-0.7374722,8.093445,-0.11382222,-0.04783833,-0.12454474,-24.122484,-1.0448072,17.345953,-200.29556,0.0,0.0,0.0,0.0,1001.07996,25.9,101.81738,192.55618,103.74294,101.81738,-4.095915,-4.0746064,-193.23808,-5.1993856,-2.9695566,-0.4125278,0.43440053,-0.09775043,-200.27658
22:22:08.836;-0.42154533,-0.7355452,8.091321,0.1303184,-0.10887349,0.18063104,-24.118788,-1.0382458,17.354362,-200.31073,0.0,0.0,0.0,0.0,1001.19995,25.9,100.80804,9999999.0,100.80804,9999999.0,-4.093155,-4.0737877,-193.47856,-5.187226,-2.9701004,-0.40874857,0.4312432,-0.10136223,-200.29556
22:22:08.864;-0.42151216,-0.73400366,8.089622,0.008248091,-0.10887349,-0.12454474,-24.11583,-1.0329967,17.36109,-200.32288,0.0,0.0,0.0,0.0,1001.19995,25.9,100.80804,192.48708,103.742256,100.80804,-4.0956273,-4.0762196,-193.70941,-5.177493,-2.9705358,-0.40850937,0.4280859,-0.09612393,-200.31073
22:22:08.889;-0.42914706,-0.7327704,8.088263,0.008248091,0.07423198,-0.06350958,-24.150263,-1.0471973,17.348072,-200.29272,0.0,0.0,0.0,0.0,1001.16,25.9,101.1436,192.48708,103.742256,101.1436,-4.0978823,-4.0746017,-193.93893,-5.169448,-3.024787,-0.40830317,0.42994168,-0.09923755,-200.32288
22:22:08.919;-0.4199321,-0.7394452,8.102498,0.1303184,0.013196826,-0.06350958,-24.17781,-1.0585579,17.337658,-200.2687,0.0,0.0,0.0,0.0,1001.13995,25.9,101.312706,192.48708,103.742256,101.312706,-4.093428,-4.0702634,-194.16512,-5.207497,-2.9545853,-0.4043936,0.43033758,-0.10114283,-200.29272
22:22:08.944;-0.42788303,-0.7371236,8.098563,0.06928325,0.013196826,-0.0024744272,-24.199848,-1.0676463,17.329327,-200.24948,0.0,0.0,0.0,0.0,1001.19995,25.9,100.80804,192.55618,103.74294,100.80804,-4.09103,-4.069125,-194.38786,-5.193474,-3.0119507,-0.40266153,0.4306675,-0.10273057,-200.2687
22:22:08.983;-0.42658234,-0.7352663,8.095415,-0.23589253,-0.10887349,-0.0024744272,-24.19908,-1.056517,17.34106,-200.27573,0.0,0.0,0.0,0.0,1001.19995,25.9,100.80804,192.55618,103.74294,100.80804,-4.1004086,-4.082642,-194.60587,-5.1825013,-3.0040298,-0.41186133,0.42642143,-0.10282707,-200.24948
22:22:09.032;-0.42554176,-0.7567649,8.100558,-0.2969277,0.1963023,-0.0024744272,-24.198463,-1.0660136,17.350449,-200.2532,0.0,0.0,0.0,0.0,1001.07996,25.9,101.81738,9999999.0,101.81738,9999999.0,-4.121845,-4.089864,-194.82016,-5.32985,-2.9941072,-0.4264108,0.43604025,-0.102948315,-200.27573
22:22:09.062;-0.43237075,-0.7586408,8.104673,-0.35796285,0.07423198,-0.12454474,-24.197971,-1.0736109,17.35796,-200.2352,0.0,0.0,0.0,0.0,1001.22,26.0,100.64157,9999999.0,100.64157,9999999.0,-4.1253915,-4.101511,-195.0298,-5.3400598,-3.040473,-0.43714967,0.4382672,-0.103022546,-200.2532
22:22:09.152;-0.43783394,-0.7448187,8.100304,0.008248091,-0.16990864,-0.0024744272,-24.215977,-1.0796887,17.345568,-200.22275,0.0,0.0,0.0,0.0,1001.19995,25.9,100.80804,9999999.0,100.80804,9999999.0,-4.12372,-4.1168513,-195.24512,-5.2459297,-3.080943,-0.43645683,0.42399487,-0.1134843,-200.2352
22:22:09.357;-0.43454304,-0.7414224,8.104469,-0.17485738,0.07423198,-0.24661505,-24.19358,-1.084551,17.335653,-200.2089,0.0,0.0,0.0,0.0,1001.25995,25.9,100.30336,9999999.0,100.30336,9999999.0,-4.174892,-4.1372447,-195.45639,-5.219593,-3.0563905,-0.47317687,0.4395836,-0.114003934,-200.22275
22:22:09.545;-0.43957177,-0.73104393,8.092479,0.008248091,0.1963023,-0.0024744272,-24.157265,-1.0884408,17.327723,-200.19583,0.0,0.0,0.0,0.0,1001.16,25.9,101.1436,9999999.0,101.1436,9999999.0,-4.1560664,-4.09871,-195.7086,-5.154316,-3.0965838,-0.47162622,0.47648844,-0.16036756,-200.2089
22:22:09.610;-0.43593332,-0.7304026,8.098209,-0.23589253,0.1963023,0.119595885,-24.165012,-1.0731527,17.321379,-200.23282,0.0,0.0,0.0,0.0,1001.19995,25.9,100.80804,9999999.0,100.80804,9999999.0,-4.134226,-4.100799,-195.95566,-5.1463284,-3.0688722,-0.48648745,0.48885548,-0.16052346,-200.19583
22:22:09.623;-0.440684,-0.7298895,8.102794,0.008248091,0.1963023,-0.06350958,-24.17121,-1.0609221,17.316303,-200.26242,0.0,0.0,0.0,0.0,1001.1,25.9,101.64828,9999999.0,101.64828,9999999.0,-4.1214476,-4.0979514,-196.19664,-5.139685,-3.1005309,-0.48635548,0.49199632,-0.15860993,-200.23282
22:22:09.653;-0.4368231,-0.7294791,8.106462,-0.2969277,-0.04783833,-0.0024744272,-24.176168,-1.0511377,17.312243,-200.28607,0.0,0.0,0.0,0.0,1001.19995,25.9,100.80804,192.55618,103.74294,100.80804,-4.124796,-4.104726,-196.43471,-5.134637,-3.072056,-0.49259096,0.4909917,-0.15994363,-200.26242
22:22:09.675;-0.4337344,-0.7368122,8.094072,-0.17485738,0.07423198,-0.06350958,-24.180136,-1.0433102,17.308994,-200.305,0.0,0.0,0.0,0.0,1001.22,25.9,100.64157,192.55618,103.74294,100.64157,-4.1314797,-4.1078353,-196.66856,-5.19395,-3.0547497,-0.49766183,0.49314445,-0.16001539,-200.28607
22:22:09.710;-0.43892485,-0.7350172,8.091823,-0.052787066,-0.04783833,-0.0024744272,-24.18331,-1.0554482,17.287996,-200.27661,0.0,0.0,0.0,0.0,1001.22,25.9,100.64157,9999999.0,100.64157,9999999.0,-4.1312447,-4.1121974,-196.90042,-5.1826167,-3.0921476,-0.49961495,0.49137443,-0.16236524,-200.305
22:22:09.742;-0.43541577,-0.7335812,8.082361,0.25238872,-0.04783833,-0.0024744272,-24.185848,-1.0651585,17.271196,-200.2539,0.0,0.0,0.0,0.0,1001.19995,25.9,100.80804,9999999.0,100.80804,9999999.0,-4.125612,-4.106021,-197.12714,-5.1786714,-3.0710778,-0.49153852,0.4898436,-0.16244443,-200.27661
22:22:09.775;-0.43260852,-0.7324324,8.090116,-0.2969277,-0.04783833,-0.12454474,-24.16948,-1.0545268,17.276157,-200.27737,0.0,0.0,0.0,0.0,1001.1,25.9,101.64828,9999999.0,101.64828,9999999.0,-4.136819,-4.116599,-197.34895,-5.1657863,-3.0484586,-0.5013371,0.48826495,-0.16252609,-200.2539
22:22:09.828;-0.4303627,-0.7315134,8.096319,-0.23589253,0.07423198,0.05856073,-24.156384,-1.0644214,17.280127,-200.2526,0.0,0.0,0.0,0.0,1001.1,25.9,101.64828,9999999.0,101.64828,9999999.0,-4.1493983,-4.1232357,-197.57315,-5.155494,-3.030393,-0.5136035,0.492125,-0.16900241,-200.27737
22:22:09.864;-0.4362275,-0.73077816,8.101282,-0.11382222,0.07423198,0.119595885,-24.145906,-1.0723372,17.2833,-200.23276,0.0,0.0,0.0,0.0,1001.1,25.9,101.64828,9999999.0,101.64828,9999999.0,-4.1477265,-4.123549,-197.7903,-5.147013,-3.0697734,-0.5177011,0.49479735,-0.16689423,-200.2526
22:22:09.905;-0.44091934,-0.7225285,8.09759,0.008248091,0.13526714,0.05856073,-24.155926,-1.0418698,17.24904,-200.30594,0.0,0.0,0.0,0.0,1001.13995,25.9,101.312706,9999999.0,101.312706,9999999.0,-4.142574,-4.1163754,-197.9979,-5.091359,-3.1044073,-0.5173629,0.5003433,-0.16199079,-200.23276
22:22:09.934;-0.43701136,-0.72359025,8.094637,-0.11382222,0.25733745,0.05856073,-24.16394,-1.0174959,17.221632,-200.36444,0.0,0.0,0.0,0.0,1001.1,25.9,101.64828,9999999.0,101.64828,9999999.0,-4.13941,-4.1106167,-198.20108,-5.100779,-3.0780213,-0.5207776,0.50806344,-0.16023397,-200.30594
22:22:09.964;-0.43388498,-0.7321011,8.099936,0.008248091,0.25733745,0.119595885,-24.151953,-1.0347967,17.218105,-200.32227,0.0,0.0,0.0,0.0,1001.16,25.9,101.1436,192.48708,103.742256,101.1436,-4.131306,-4.10219,-198.39964,-5.1572104,-3.053778,-0.52053016,0.51578355,-0.15847716,-200.36444
22:22:10.003;-0.43138388,-0.7312483,8.111836,-0.11382222,-0.10887349,-0.06350958,-24.142363,-1.0486374,17.215284,-200.28851,0.0,0.0,0.0,0.0,1001.1,25.9,101.64828,192.48708,103.742256,101.64828,-4.1273727,-4.1096234,-198.58882,-5.143824,-3.031826,-0.5249692,0.5115375,-0.15381292,-200.32227
22:22:10.031;-0.43704444,-0.73056614,8.121357,0.06928325,0.013196826,-0.06350958,-24.13469,-1.04131,17.194628,-200.30508,0.0,0.0,0.0,0.0,1001.16,25.9,101.1436,192.48708,103.742256,101.1436,-4.1281877,-4.1066217,-198.7753,-5.132886,-3.0679917,-0.52302927,0.511907,-0.15559119,-200.28851
22:22:10.062;-0.4415729,-0.7300204,8.121312,0.06928325,-0.10887349,0.05856073,-24.128551,-1.035448,17.178102,-200.31836,0.0,0.0,0.0,0.0,1001.13995,25.9,101.312706,192.48708,103.742256,101.312706,-4.1249633,-4.1077666,-198.96031,-5.128947,-3.0997546,-0.5208815,0.5085319,-0.15755999,-200.30508
22:22:10.165;-0.4375342,-0.72192234,8.121276,0.06928325,0.07423198,-0.0024744272,-24.123642,-1.0307584,17.183283,-200.32898,0.0,0.0,0.0,0.0,1001.27997,25.9,100.136894,9999999.0,100.136894,9999999.0,-4.125228,-4.1021943,-199.14034,-5.0725083,-3.071743,-0.51901084,0.5105362,-0.15597886,-200.31836
22:22:10.170;-0.44196472,-0.7231053,8.121247,0.1303184,0.07423198,0.05856073,-24.119713,-1.0270067,17.205826,-200.33746,0.0,0.0,0.0,0.0,1001.16,25.9,101.1436,9999999.0,101.1436,9999999.0,-4.1114187,-4.085353,-199.31715,-5.0806456,-3.1027582,-0.50845504,0.516549,-0.1561793,-200.32898
22:22:10.200;-0.43784767,-0.7317132,8.113563,-0.11382222,0.1963023,-0.06350958,-24.11657,-1.0240054,17.22386,-200.34427,0.0,0.0,0.0,0.0,1001.19995,25.9,100.80804,9999999.0,100.80804,9999999.0,-4.1099076,-4.0834684,-199.48889,-5.1457725,-3.076504,-0.5118697,0.52243805,-0.15442248,-200.33746
22:22:10.237;-0.43455404,-0.7385994,8.107415,-0.11382222,0.013196826,-0.06350958,-24.114056,-1.0400044,17.238287,-200.30606,0.0,0.0,0.0,0.0,1001.07996,25.9,101.81738,9999999.0,101.81738,9999999.0,-4.109216,-4.08774,-199.65926,-5.197954,-3.0554647,-0.5153982,0.5228472,-0.15639128,-200.34427
22:22:10.269;-0.43191913,-0.736447,8.102497,-0.17485738,0.13526714,-0.12454474,-24.112045,-1.0528035,17.24983,-200.27551,0.0,0.0,0.0,0.0,1001.25995,25.9,100.30336,9999999.0,100.30336,9999999.0,-4.115534,-4.0894933,-199.82758,-5.186098,-3.03887,-0.52134335,0.52744627,-0.1585506,-200.30606
22:22:10.293;-0.4298112,-0.73472506,8.106224,-0.23589253,0.07423198,-0.12454474,-24.110435,-1.0630428,17.240664,-200.25107,0.0,0.0,0.0,0.0,1001.19995,25.9,100.80804,9999999.0,100.80804,9999999.0,-4.117842,-4.0938306,-199.99545,-5.17175,-3.0227482,-0.52818424,0.529599,-0.16216241,-200.27551
22:22:10.321;-0.4357863,-0.7256861,8.109205,-0.052787066,0.1963023,-0.0024744272,-24.109148,-1.0712342,17.233332,-200.2315,0.0,0.0,0.0,0.0,1001.22,25.9,100.64157,192.48708,103.742256,100.64157,-4.1155305,-4.089111,-200.1629,-5.106401,-3.063879,-0.52966225,0.53509545,-0.16564967,-200.25107
22:22:10.352;-0.43290496,-0.7261163,8.119252,0.06928325,-0.04783833,0.05856073,-24.108118,-1.0777874,17.227465,-200.21585,0.0,0.0,0.0,0.0,1001.22,25.9,100.64157,192.48708,103.742256,100.64157,-4.1073565,-4.0874143,-200.32669,-5.1032376,-3.0399158,-0.5275838,0.5336603,-0.1657239,-200.2315
22:22:10.381;-0.43059987,-0.7341219,8.104305,-0.11382222,-0.10887349,-0.0024744272,-24.107294,-1.0830299,17.222773,-200.20331,0.0,0.0,0.0,0.0,1001.13995,25.9,101.312706,192.48708,103.742256,101.312706,-4.1122746,-4.0937033,-200.48523,-5.1687145,-3.0290143,-0.5308846,0.530503,-0.16402565,-200.21585
22:22:10.409;-0.4287558,-0.732865,8.107671,-0.052787066,0.13526714,-0.12454474,-24.106636,-1.0688239,17.237417,-200.23694,0.0,0.0,0.0,0.0,1001.19995,25.9,100.80804,192.48708,103.742256,100.80804,-4.116435,-4.090692,-200.6404,-5.15785,-3.0148687,-0.53236264,0.53429043,-0.16409494,-200.20331
22:22:10.437;-0.42728055,-0.73185945,8.110363,-0.052787066,0.1963023,-0.06350958,-24.10611,-1.0574591,17.249134,-200.26385,0.0,0.0,0.0,0.0,1001.25995,25.9,100.30336,192.48708,103.742256,100.30336,-4.11331,-4.085728,-200.79655,-5.149164,-3.0035603,-0.53384066,0.5397869,-0.1675822,-200.23694
22:22:10.473;-0.42610034,-0.7387165,8.112516,-0.052787066,-0.04783833,-0.12454474,-24.087288,-1.0483673,17.258507,-200.28348,0.0,0.0,0.0,0.0,1001.19995,25.9,100.80804,192.48708,103.742256,100.80804,-4.1097407,-4.0890718,-200.95232,-5.1958165,-2.9942648,-0.5356882,0.5381125,-0.16980503,-200.26385
22:22:10.500;-0.42515618,-0.7288792,8.106578,-0.11382222,0.013196826,-0.0024744272,-24.072231,-1.0410938,17.266005,-200.2992,0.0,0.0,0.0,0.0,1001.07996,25.9,101.81738,192.48708,103.742256,101.81738,-4.1130285,-4.0902085,-201.10876,-5.1307535,-2.990134,-0.5388752,0.538482,-0.1732923,-200.28348
22:22:10.529;-0.4320623,-0.7210094,8.1094885,-0.052787066,0.013196826,0.05856073,-24.060184,-1.0352751,17.272003,-200.3118,0.0,0.0,0.0,0.0,1001.19995,25.9,100.80804,9999999.0,100.80804,9999999.0,-4.111274,-4.089455,-201.26247,-5.0736127,-3.0377958,-0.5403005,0.5388383,-0.17335911,-200.2992
22:22:10.558;-0.42992574,-0.7300364,8.096495,0.008248091,0.13526714,-0.06350958,-24.068947,-1.04902,17.276802,-200.28003,0.0,0.0,0.0,0.0,1001.16,25.9,101.1436,9999999.0,101.1436,9999999.0,-4.110308,-4.084406,-201.4115,-5.145045,-3.0273063,-0.54003656,0.5431669,-0.17148517,-200.3118
22:22:10.609;-0.4282165,-0.737258,8.0937605,-0.17485738,0.013196826,0.05856073,-24.075958,-1.060016,17.280642,-200.25464,0.0,0.0,0.0,0.0,1001.19995,25.9,100.80804,9999999.0,100.80804,9999999.0,-4.115063,-4.0924497,-201.55997,-5.1974616,-3.0160599,-0.54860455,0.5438135,-0.17459714,-200.28003
22:22:10.677;-0.4268491,-0.7430353,8.091574,0.19135356,0.37940776,0.05856073,-24.081566,-1.0688128,17.302113,-200.23434,0.0,0.0,0.0,0.0,1001.1,25.9,101.64828,9999999.0,101.64828,9999999.0,-4.1028247,-4.0559974,-201.70111,-5.239414,-3.0070565,-0.5357839,0.56923383,-0.17067358,-200.25464
22:22:10.723;-0.42575517,-0.7476572,8.097486,-0.11382222,0.25733745,-0.12454474,-24.104452,-1.0758502,17.31929,-200.22006,0.0,0.0,0.0,0.0,1001.22,25.9,100.64157,9999999.0,100.64157,9999999.0,-4.0854807,-4.051859,-201.83633,-5.268042,-2.9970407,-0.5411335,0.5813287,-0.16792123,-200.23434
22:22:10.774;-0.42488003,-0.74369323,8.094553,-0.17485738,0.13526714,-0.0024744272,-24.104362,-1.0814801,17.314632,-200.2067,0.0,0.0,0.0,0.0,1001.25995,25.9,100.30336,9999999.0,100.30336,9999999.0,-4.0842333,-4.0557623,-201.97467,-5.24218,-2.9920976,-0.5498764,0.588092,-0.17414847,-200.22006
22:22:10.815;-0.4241799,-0.7481835,8.099869,-0.11382222,0.1963023,-0.12454474,-24.10429,-1.0859841,17.310905,-200.19598,0.0,0.0,0.0,0.0,1001.22,25.9,100.64157,9999999.0,100.64157,9999999.0,-4.0839562,-4.0552454,-202.11008,-5.270245,-2.9850848,-0.5538602,0.5949626,-0.17423508,-200.2067
22:22:10.838;-0.43128127,-0.7441143,8.104121,-0.17485738,0.013196826,0.05856073,-24.122633,-1.0711873,17.326324,-200.23303,0.0,0.0,0.0,0.0,1001.25995,25.9,100.30336,9999999.0,100.30336,9999999.0,-4.084228,-4.062813,-202.24634,-5.2387733,-3.0335293,-0.55928075,0.5953717,-0.17809597,-200.19598
22:22:10.879;-0.42163947,-0.7408589,8.107523,0.1303184,0.013196826,-0.12454474,-24.118906,-1.0593498,17.33866,-200.26071,0.0,0.0,0.0,0.0,1001.22,25.9,100.64157,192.55618,103.74294,100.64157,-4.0804753,-4.057617,-202.3782,-5.2141347,-2.9647098,-0.5538074,0.595926,-0.17563641,-200.23303
22:22:10.931;-0.42158747,-0.7382546,8.094922,0.008248091,0.07423198,-0.0024744272,-24.115925,-1.0498798,17.348528,-200.28284,0.0,0.0,0.0,0.0,1001.16,25.9,101.1436,9999999.0,101.1436,9999999.0,-4.080131,-4.0541987,-202.5142,-5.20393,-2.9689991,-0.55338675,0.59971184,-0.1819882,-200.26071
22:22:10.970;-0.42920732,-0.7361711,8.100164,0.008248091,0.13526714,-0.06350958,-24.13194,-1.0423038,17.338022,-200.30246,0.0,0.0,0.0,0.0,1001.1,25.9,101.64828,192.55618,103.74294,101.64828,-4.076514,-4.0502276,-202.64801,-5.1857386,-3.0206962,-0.55306506,0.60498726,-0.1820847,-200.28284
22:22:11.017;-0.42764175,-0.73450434,8.104358,-0.23589253,-0.10887349,-0.0024744272,-24.126352,-1.054643,17.366419,-200.27264,0.0,0.0,0.0,0.0,1001.1,25.9,101.64828,192.55618,103.74294,101.64828,-4.0835176,-4.0670257,-202.78247,-5.1714582,-3.008212,-0.564152,0.5998702,-0.18506965,-200.30246
22:22:11.046;-0.4263893,-0.7408324,8.107713,-0.35796285,-0.10887349,-0.0024744272,-24.121881,-1.0645144,17.389135,-200.24878,0.0,0.0,0.0,0.0,1001.19995,25.9,100.80804,9999999.0,100.80804,9999999.0,-4.1004825,-4.081633,-202.91373,-5.2136693,-2.9979784,-0.5748909,0.596604,-0.18514389,-200.27264
22:22:11.079;-0.43304878,-0.7458948,8.118058,0.1303184,-0.04783833,-0.12454474,-24.136705,-1.0724115,17.370508,-200.2316,0.0,0.0,0.0,0.0,1001.07996,25.9,101.81738,9999999.0,101.81738,9999999.0,-4.100758,-4.081057,-203.04195,-5.2422385,-3.0407016,-0.57072073,0.59507316,-0.18522307,-200.24878
22:22:11.104;-0.43837637,-0.74994475,8.10335,0.06928325,0.013196826,-0.3076502,-24.148565,-1.0787293,17.355606,-200.2179,0.0,0.0,0.0,0.0,1001.27997,25.9,100.136894,9999999.0,100.136894,9999999.0,-4.1033354,-4.082614,-203.1703,-5.279843,-3.0834272,-0.5689887,0.5954031,-0.18833669,-200.2316
22:22:11.137;-0.44263843,-0.7378618,8.114568,-0.17485738,0.13526714,0.05856073,-24.158052,-1.0837834,17.362085,-200.20694,0.0,0.0,0.0,0.0,1001.06,25.9,101.98649,9999999.0,101.98649,9999999.0,-4.110376,-4.085984,-203.30577,-5.1879754,-3.1095076,-0.57475895,0.59986687,-0.19848914,-200.2179
22:22:11.175;-0.4307252,-0.74351835,8.108219,-0.23589253,0.13526714,-0.0024744272,-24.165642,-1.0878267,17.367268,-200.19818,0.0,0.0,0.0,0.0,1001.1,25.9,101.64828,9999999.0,101.64828,9999999.0,-4.1176896,-4.090861,-203.43613,-5.2319965,-3.0281298,-0.5837229,0.605007,-0.19626383,-200.20694
22:22:11.227;-0.42885605,-0.74038213,8.110802,-0.23589253,0.07423198,0.18063104,-24.153313,-1.0910614,17.371414,-200.18921,0.0,0.0,0.0,0.0,1001.22,25.9,100.64157,9999999.0,100.64157,9999999.0,-4.1252346,-4.0992303,-203.56384,-5.208467,-3.0141687,-0.5959893,0.60886705,-0.1963925,-200.19818
22:22:11.262;-0.42736074,-0.7455346,8.1052065,0.1303184,0.13526714,0.05856073,-24.14345,-1.093649,17.374731,-200.182,0.0,0.0,0.0,0.0,1001.22,25.9,100.64157,9999999.0,100.64157,9999999.0,-4.1177387,-4.090855,-203.68262,-5.248153,-3.0055578,-0.59142816,0.6136014,-0.19007042,-200.18921
22:22:11.389;-0.43382594,-0.7343337,8.108392,0.008248091,0.013196826,-0.0024744272,-24.13556,-1.0957192,17.377384,-200.17627,0.0,0.0,0.0,0.0,1001.22,25.9,100.64157,9999999.0,100.64157,9999999.0,-4.1119843,-4.090101,-203.796,-5.1675043,-3.0501354,-0.59101576,0.6142612,-0.18714239,-200.182
22:22:11.394;-0.43133664,-0.73303443,8.11094,0.008248091,0.07423198,-0.0024744272,-24.129248,-1.0973754,17.342707,-200.17166,0.0,0.0,0.0,0.0,1001.22,25.9,100.64157,9999999.0,100.64157,9999999.0,-4.1107736,-4.083228,-203.90721,-5.1568875,-3.0317667,-0.5903394,0.6203482,-0.1873453,-200.17627
22:22:11.445;-0.43700665,-0.731995,8.112978,-0.11382222,0.1963023,-0.0024744272,-24.124199,-1.0987003,17.333364,-200.16797,0.0,0.0,0.0,0.0,1001.1,25.9,101.64828,9999999.0,101.64828,9999999.0,-4.110215,-4.079616,-204.01622,-5.14814,-3.0708153,-0.5961444,0.63035965,-0.1874715,-200.17166
22:22:11.486;-0.43388122,-0.723502,8.099286,0.06928325,0.07423198,-0.0024744272,-24.13856,-1.0997602,17.307491,-200.16702,0.0,0.0,0.0,0.0,1001.19995,25.9,100.80804,9999999.0,100.80804,9999999.0,-4.0971875,-4.0733466,-204.12308,-5.0973616,-3.0542827,-0.59330374,0.6334032,-0.18757294,-200.16797
22:22:11.533;-0.43138087,-0.7320305,8.111317,0.1303184,0.07423198,0.119595885,-24.131647,-1.1006081,17.305193,-200.16428,0.0,0.0,0.0,0.0,1001.16,25.9,101.1436,9999999.0,101.1436,9999999.0,-4.0888696,-4.0643125,-204.22789,-5.149624,-3.0319712,-0.58717877,0.6368921,-0.18768924,-200.16702
22:22:11.574;-0.43704203,-0.7235304,8.097957,0.06928325,0.07423198,-0.0024744272,-24.126118,-1.1012865,17.303354,-200.16205,0.0,0.0,0.0,0.0,1001.22,25.9,100.64157,9999999.0,100.64157,9999999.0,-4.082208,-4.059121,-204.32574,-5.0982847,-3.0769894,-0.5843381,0.6399356,-0.18278581,-200.16428
22:22:11.600;-0.43390954,-0.7320532,8.094931,-0.052787066,0.07423198,-0.1855799,-24.140095,-1.1018292,17.283484,-200.1623,0.0,0.0,0.0,0.0,1001.13995,25.9,101.312706,9999999.0,101.312706,9999999.0,-4.0824842,-4.0600595,-204.42166,-5.160036,-3.0558214,-0.5857106,0.6418657,-0.18285014,-200.16205
22:22:11.643;-0.43140352,-0.73121005,8.092509,-0.11382222,0.13526714,-0.0024744272,-24.151276,-1.1022633,17.267588,-200.16248,0.0,0.0,0.0,0.0,1001.19995,25.9,100.80804,9999999.0,100.80804,9999999.0,-4.086881,-4.0600934,-204.52365,-5.1557393,-3.0391343,-0.59071875,0.64781743,-0.19101565,-200.1623
22:22:11.680;-0.42939872,-0.7305355,8.090572,-0.11382222,-0.04783833,-0.12454474,-24.14182,-1.1026107,17.25487,-200.16061,0.0,0.0,0.0,0.0,1001.16,25.9,101.1436,9999999.0,101.1436,9999999.0,-4.086065,-4.0665936,-204.62372,-5.152299,-3.0257769,-0.5949302,0.6460474,-0.1911072,-200.16248
22:22:11.723;-0.4201334,-0.7376573,8.096684,-0.052787066,0.37940776,-0.24661505,-24.134256,-1.1028886,17.244696,-200.15915,0.0,0.0,0.0,0.0,1001.22,25.9,100.64157,9999999.0,100.64157,9999999.0,-4.0914083,-4.0531273,-204.72687,-5.198668,-2.9581592,-0.5971472,0.66198254,-0.19633807,-200.16061
22:22:11.763;-0.42804408,-0.7280319,8.101574,-0.35796285,0.13526714,-0.0024744272,-24.128204,-1.0847108,17.254957,-200.20157,0.0,0.0,0.0,0.0,1001.16,25.9,101.1436,9999999.0,101.1436,9999999.0,-4.088654,-4.0618243,-204.83759,-5.127865,-3.0122764,-0.61146575,0.6673932,-0.20620267,-200.15915
22:22:11.809;-0.42671117,-0.7356544,8.090162,-0.23589253,0.13526714,-0.06350958,-24.104963,-1.0701687,17.244766,-200.23358,0.0,0.0,0.0,0.0,1001.13995,25.9,101.312706,9999999.0,101.312706,9999999.0,-4.094993,-4.0671325,-204.94705,-5.188556,-3.006854,-0.62231684,0.6736155,-0.2063165,-200.20157
22:22:12.441;-0.41798338,-0.7264295,8.119341,-0.418998,0.1963023,-0.06350958,-24.08637,-1.058535,17.236612,-200.25925,0.0,0.0,0.0,0.0,1001.25995,25.9,100.30336,9999999.0,100.30336,9999999.0,-4.347007,-4.197383,-205.09424,-5.1058598,-2.9352791,-0.88670456,0.79748225,-0.24639104,-200.23358
22:22:12.657;-0.41100115,-0.7343725,8.104376,-0.052787066,0.013196826,-0.1855799,-24.089897,-1.067628,17.24849,-200.23804,0.0,0.0,0.0,0.0,1001.19995,25.9,100.80804,9999999.0,100.80804,9999999.0,-4.2277718,-4.198314,-205.25215,-5.1710687,-2.8913555,-0.89784265,0.8002668,-0.25979155,-200.25925
22:22:12.723;-0.41307682,-0.7330655,8.130712,0.06928325,0.13526714,-0.0024744272,-24.111118,-1.0749024,17.276392,-200.22299,0.0,0.0,0.0,0.0,1001.22,25.9,100.64157,9999999.0,100.64157,9999999.0,-4.2123647,-4.1765056,-205.41956,-5.145262,-2.8966541,-0.8928543,0.810006,-0.2731533,-200.23804
22:22:12.773;-0.41473734,-0.73201984,8.128796,-0.11382222,0.25733745,0.05856073,-24.128096,-1.080722,17.298714,-200.211,0.0,0.0,0.0,0.0,1001.13995,25.9,101.312706,9999999.0,101.312706,9999999.0,-4.2014465,-4.162736,-205.58345,-5.13911,-2.9089906,-0.8986592,0.82313025,-0.2732795,-200.22299
22:22:12.835;-0.41606578,-0.73884475,8.127263,0.008248091,0.013196826,-0.0024744272,-24.123276,-1.0853776,17.31657,-200.19946,0.0,0.0,0.0,0.0,1001.13995,25.9,101.312706,9999999.0,101.312706,9999999.0,-4.1827497,-4.156691,-205.74036,-5.187691,-2.9186177,-0.89816433,0.82392204,-0.26976585,-200.211
22:22:12.896;-0.41712853,-0.73664325,8.126037,-0.11382222,0.25733745,-0.06350958,-24.137821,-1.089102,17.330856,-200.1922,0.0,0.0,0.0,0.0,1001.16,25.9,101.1436,9999999.0,101.1436,9999999.0,-4.183823,-4.1432943,-205.89404,-5.1730576,-2.9265683,-0.9051075,0.83961964,-0.2699168,-200.19946
22:22:12.943;-0.42564017,-0.7425435,8.125055,-0.052787066,0.13526714,-0.06350958,-24.112658,-1.0920817,17.323885,-200.18243,0.0,0.0,0.0,0.0,1001.22,25.9,100.64157,192.55618,103.74294,100.64157,-4.167255,-4.137141,-206.04758,-5.214608,-2.9863403,-0.90769404,0.84624773,-0.27302876,-200.1922
22:22:13.020;-0.42478803,-0.7472637,8.12427,-0.23589253,-0.16990864,0.119595885,-24.110926,-1.0760653,17.318308,-200.22021,0.0,0.0,0.0,0.0,1001.13995,25.9,101.312706,192.55618,103.74294,101.312706,-4.1760054,-4.164084,-206.20233,-5.248103,-2.9805002,-0.9246783,0.8340143,-0.27760145,-200.18243
22:22:13.087;-0.42410633,-0.75103986,8.115981,-0.35796285,0.44044292,-0.24661505,-24.127941,-1.0632522,17.313847,-200.25238,0.0,0.0,0.0,0.0,1001.19995,25.9,100.80804,9999999.0,100.80804,9999999.0,-4.198326,-4.1592565,-206.35074,-5.279839,-2.9786074,-0.93684906,0.84898937,-0.2735352,-200.22021
22:22:13.101;-0.41589952,-0.74639934,8.117011,0.008248091,0.013196826,0.2416662,-24.141554,-1.0530018,17.310278,-200.2781,0.0,0.0,0.0,0.0,1001.13995,25.9,101.312706,9999999.0,101.312706,9999999.0,-4.1806073,-4.154765,-206.50894,-5.2470107,-2.9208553,-0.93643665,0.8496492,-0.28586593,-200.25238
22:22:13.145;-0.42465696,-0.73502547,8.110174,-0.052787066,0.1963023,-0.06350958,-24.152443,-1.0632014,17.307423,-200.25507,0.0,0.0,0.0,0.0,1001.19995,25.9,100.80804,9999999.0,100.80804,9999999.0,-4.1774282,-4.1449256,-206.65381,-5.1715255,-2.9851158,-0.9388121,0.8584828,-0.27499095,-200.2781
22:22:13.181;-0.42400146,-0.7259264,8.104704,-0.23589253,-0.16990864,-0.24661505,-24.161154,-1.0529611,17.305138,-200.28021,0.0,0.0,0.0,0.0,1001.25995,25.9,100.30336,9999999.0,100.30336,9999999.0,-4.172575,-4.154774,-206.79758,-5.111288,-2.9828067,-0.9473042,0.8523661,-0.2772773,-200.25507
22:22:13.219;-0.43113852,-0.74163145,8.100328,0.008248091,0.13526714,0.05856073,-24.168123,-1.0447689,17.30331,-200.30032,0.0,0.0,0.0,0.0,1001.22,25.9,100.64157,192.48708,103.742256,100.64157,-4.175848,-4.147974,-206.94815,-5.2238197,-3.0340168,-0.9469908,0.8575062,-0.28664866,-200.28021
22:22:13.257;-0.4138638,-0.73887265,8.104489,0.008248091,-0.10887349,-0.06350958,-24.173698,-1.0382152,17.28345,-200.3164,0.0,0.0,0.0,0.0,1001.16,25.9,101.1436,192.48708,103.742256,101.1436,-4.168756,-4.1476607,-207.09392,-5.202418,-2.9112737,-0.9466774,0.853369,-0.28442335,-200.30032
22:22:13.322;-0.41536695,-0.744327,8.107818,0.008248091,0.1963023,0.2416662,-24.15976,-1.0329721,17.26756,-200.3274,0.0,0.0,0.0,0.0,1001.16,25.9,101.1436,192.48708,103.742256,101.1436,-4.1689906,-4.1324773,-207.24083,-5.2384257,-2.9204638,-0.9461825,0.8651471,-0.28823394,-200.3164
22:22:13.392;-0.41656947,-0.7410291,8.11048,-0.11382222,0.13526714,-0.12454474,-24.148607,-1.0287777,17.254847,-200.33618,0.0,0.0,0.0,0.0,1001.19995,25.9,100.80804,9999999.0,100.80804,9999999.0,-4.1621313,-4.1279054,-207.36798,-5.2136064,-2.92806,-0.9543777,0.87488633,-0.27083397,-200.3274
22:22:13.406;-0.4175315,-0.74605215,8.112611,0.008248091,0.13526714,0.05856073,-24.158087,-1.0438222,17.244677,-200.30154,0.0,0.0,0.0,0.0,1001.16,25.9,101.1436,9999999.0,101.1436,9999999.0,-4.150197,-4.12428,-207.49422,-5.247351,-2.9338825,-0.9542787,0.87650955,-0.2723285,-200.33618
22:22:13.647;-0.41063964,-0.74240917,8.106653,-0.23589253,-0.16990864,-0.06350958,-24.16567,-1.0558578,17.254942,-200.27383,0.0,0.0,0.0,0.0,1001.22,25.9,100.64157,9999999.0,100.64157,9999999.0,-4.169661,-4.1608405,-207.61145,-5.2259016,-2.887755,-0.9781039,0.8593488,-0.26641387,-200.30154
22:22:13.669;-0.42044905,-0.7394948,8.11721,-0.23589253,-0.2309438,-0.06350958,-24.153336,-1.0654862,17.244753,-200.24976,0.0,0.0,0.0,0.0,1001.13995,25.9,101.312706,9999999.0,101.312706,9999999.0,-4.219968,-4.232197,-207.73613,-5.1984653,-2.9529061,-1.017262,0.8210121,-0.27695647,-200.27383
22:22:13.748;-0.42063513,-0.75248617,8.117994,0.06928325,0.013196826,-0.0024744272,-24.16187,-1.091589,17.255003,-200.18887,0.0,0.0,0.0,0.0,1001.25995,25.9,100.30336,9999999.0,100.30336,9999999.0,-4.2481003,-4.221213,-207.86261,-5.288765,-2.9534984,-1.0119271,0.8220282,-0.2818467,-200.24976
22:22:13.756;-0.42844546,-0.7398949,8.118622,0.008248091,0.07423198,-0.12454474,-24.168695,-1.1124712,17.263203,-200.1402,0.0,0.0,0.0,0.0,1001.22,25.9,100.64157,9999999.0,100.64157,9999999.0,-4.24071,-4.215337,-207.98537,-5.2001,-3.0084333,-1.0118446,0.82277054,-0.28187144,-200.18887
22:22:13.828;-0.42703226,-0.7374834,8.111463,0.008248091,0.13526714,-0.0024744272,-24.155756,-1.092377,17.269762,-200.18634,0.0,0.0,0.0,0.0,1001.19995,25.9,100.80804,9999999.0,100.80804,9999999.0,-4.234286,-4.201406,-208.11227,-5.187828,-3.0012286,-1.0113332,0.8311571,-0.28959322,-200.1402
22:22:13.871;-0.4259017,-0.73555416,8.105735,-0.11382222,0.07423198,-0.06350958,-24.145405,-1.0947015,17.27501,-200.17975,0.0,0.0,0.0,0.0,1001.19995,25.9,100.80804,9999999.0,100.80804,9999999.0,-4.2269616,-4.1984034,-208.2377,-5.177995,-2.9954555,-1.0174797,0.8351656,-0.28972685,-200.18634
22:22:13.932;-0.4326587,-0.72634935,8.101152,-0.052787066,-0.04783833,-0.06350958,-24.137123,-1.0781612,17.279207,-200.21802,0.0,0.0,0.0,0.0,1001.22,25.9,100.64157,9999999.0,100.64157,9999999.0,-4.219863,-4.1991763,-208.3642,-5.1161876,-3.0449033,-1.0206469,0.8322953,-0.29353744,-200.17975
22:22:13.987;-0.43040287,-0.73430836,8.0974865,0.008248091,0.13526714,0.05856073,-24.112099,-1.046529,17.282566,-200.2904,0.0,0.0,0.0,0.0,1001.1,25.9,101.64828,9999999.0,101.64828,9999999.0,-4.2182436,-4.187324,-208.49231,-5.1743445,-3.030149,-1.0202016,0.8395997,-0.29696697,-200.21802
22:22:14.039;-0.43625966,-0.7253527,8.086893,-0.418998,0.013196826,-0.0024744272,-24.09208,-1.0212233,17.285254,-200.34842,0.0,0.0,0.0,0.0,1001.25995,25.9,100.30336,9999999.0,100.30336,9999999.0,-4.228522,-4.2047524,-208.61613,-5.1180186,-3.0755908,-1.0432465,0.84032553,-0.29374614,-200.2904
22:22:14.078;-0.43328363,-0.7258496,8.08608,-0.052787066,0.1963023,-0.1855799,-24.112864,-1.0377786,17.324203,-200.31122,0.0,0.0,0.0,0.0,1001.25995,25.9,100.30336,9999999.0,100.30336,9999999.0,-4.2250657,-4.1943526,-208.73874,-5.122118,-3.0549376,-1.0452524,0.847785,-0.29384017,-200.34842
22:22:14.124;-0.4309028,-0.7339086,8.108413,-0.2969277,0.013196826,-0.12454474,-24.111092,-1.0510229,17.318563,-200.27963,0.0,0.0,0.0,0.0,1001.19995,25.9,100.80804,9999999.0,100.80804,9999999.0,-4.227143,-4.2025976,-208.86653,-5.164614,-3.0296285,-1.0589111,0.84839207,-0.30237684,-200.31122
22:22:14.174;-0.42899814,-0.74801725,8.103295,-0.052787066,-0.10887349,0.18063104,-24.128073,-1.0616183,17.31405,-200.25629,0.0,0.0,0.0,0.0,1001.22,25.9,100.64157,9999999.0,100.64157,9999999.0,-4.2264667,-4.2076254,-208.99722,-5.2667074,-3.017672,-1.0615504,0.8429484,-0.30860406,-200.27963
22:22:14.225;-0.4274744,-0.74398124,8.099201,0.008248091,0.07423198,-0.12454474,-24.141659,-1.0700947,17.31044,-200.23761,0.0,0.0,0.0,0.0,1001.19995,25.9,100.80804,9999999.0,100.80804,9999999.0,-4.2278833,-4.199788,-209.11581,-5.2411265,-3.0086145,-1.0611297,0.8467342,-0.29939187,-200.25629
22:22:14.284;-0.42625543,-0.74075246,8.095926,0.008248091,-0.10887349,0.18063104,-24.134127,-1.0768758,17.307552,-200.22076,0.0,0.0,0.0,0.0,1001.16,25.9,101.1436,9999999.0,101.1436,9999999.0,-4.219728,-4.201656,-209.23886,-5.220641,-3.0013607,-1.0606431,0.8403107,-0.30674002,-200.23761
22:22:14.327;-0.42528024,-0.7458309,8.085645,-0.11382222,0.013196826,-0.1855799,-24.164902,-1.0639007,17.305243,-200.2547,0.0,0.0,0.0,0.0,1001.19995,25.9,100.80804,9999999.0,100.80804,9999999.0,-4.227566,-4.2024336,-209.35167,-5.2628937,-2.9981046,-1.0654236,0.84086496,-0.2991535,-200.22076
22:22:14.446;-0.4245001,-0.7422322,8.092742,-0.35796285,0.25733745,-0.0024744272,-24.152721,-1.0903206,17.321795,-200.19089,0.0,0.0,0.0,0.0,1001.19995,25.9,100.80804,9999999.0,100.80804,9999999.0,-4.2465506,-4.2045255,-209.47508,-5.233113,-2.9901383,-1.0894071,0.85810655,-0.31158736,-200.2547
22:22:14.472;-0.43153742,-0.74701464,8.09842,-0.11382222,0.13526714,-0.0024744272,-24.161377,-1.0930564,17.335035,-200.18533,0.0,0.0,0.0,0.0,1001.19995,25.9,100.80804,9999999.0,100.80804,9999999.0,-4.2343903,-4.2001095,-209.59494,-5.2627406,-3.0373435,-1.0982852,0.8686574,-0.31178036,-200.19089
22:22:14.522;-0.4218444,-0.7431792,8.1029625,-0.052787066,0.013196826,-0.0024744272,-24.168303,-1.0952451,17.345629,-200.18091,0.0,0.0,0.0,0.0,1001.19995,25.9,100.80804,9999999.0,100.80804,9999999.0,-4.2233596,-4.1976,-209.71242,-5.233287,-2.9677236,-1.1009245,0.86931723,-0.31190407,-200.18533
22:22:14.576;-0.42941287,-0.7401108,8.098935,-0.35796285,0.13526714,0.119595885,-24.173841,-1.0969961,17.335703,-200.17737,0.0,0.0,0.0,0.0,1001.1,25.9,101.64828,9999999.0,101.64828,9999999.0,-4.2354703,-4.2045817,-209.82758,-5.2141156,-3.0224617,-1.1188226,0.8760806,-0.31202778,-200.18091
22:22:14.622;-0.43546763,-0.7376561,8.088052,0.008248091,-0.10887349,-0.1855799,-24.159874,-1.0983969,17.327763,-200.17255,0.0,0.0,0.0,0.0,1001.22,25.9,100.64157,9999999.0,100.64157,9999999.0,-4.2241592,-4.206394,-209.9345,-5.2036457,-3.0691645,-1.1184101,0.8706369,-0.30604798,-200.17737
22:22:14.681;-0.43265,-0.7356924,8.087007,-0.11382222,0.013196826,-0.0024744272,-24.167099,-1.0811175,17.32141,-200.2142,0.0,0.0,0.0,0.0,1001.25995,25.9,100.30336,192.48708,103.742256,100.30336,-4.232772,-4.2083364,-210.0501,-5.19063,-3.0498004,-1.1252395,0.87142867,-0.31718278,-200.17255
22:22:14.728;-0.4303959,-0.7417828,8.093832,-0.052787066,0.07423198,-0.06350958,-24.15448,-1.067294,17.316328,-200.2456,0.0,0.0,0.0,0.0,1001.25995,25.9,100.30336,192.55618,103.74294,100.30336,-4.2311306,-4.203786,-210.16434,-5.2290635,-3.0312018,-1.1276677,0.87484336,-0.3172966,-200.2142
22:22:14.772;-0.42859262,-0.7389937,8.099292,-0.17485738,0.013196826,0.119595885,-24.144384,-1.0746351,17.312262,-200.22714,0.0,0.0,0.0,0.0,1001.16,25.9,101.1436,192.48708,103.742256,101.1436,-4.2315435,-4.2066627,-210.27972,-5.206089,-3.0166051,-1.1355362,0.8754372,-0.32015452,-200.2456
22:22:14.818;-0.41948855,-0.7520853,8.095999,-0.17485738,0.013196826,0.05856073,-24.136307,-1.0805081,17.30901,-200.21237,0.0,0.0,0.0,0.0,1001.19995,25.9,100.80804,192.48708,103.742256,100.80804,-4.235217,-4.2090764,-210.38785,-5.3002434,-2.9533951,-1.1423557,0.8759519,-0.31549028,-200.22714
22:22:14.853;-0.41986674,-0.7548972,8.085703,0.008248091,0.07423198,0.05856073,-24.129845,-1.0852065,17.324808,-200.20056,0.0,0.0,0.0,0.0,1001.27997,25.9,100.136894,9999999.0,100.136894,9999999.0,-4.2310886,-4.2026052,-210.4911,-5.3266506,-2.9596834,-1.1420093,0.8790696,-0.31303072,-200.21237
22:22:14.907;-0.4201693,-0.75714666,8.085127,0.008248091,0.013196826,-0.12454474,-24.124676,-1.0705652,17.319046,-200.23471,0.0,0.0,0.0,0.0,1001.16,25.9,101.1436,9999999.0,101.1436,9999999.0,-4.2249804,-4.199034,-210.58902,-5.342798,-2.9619448,-1.1415721,0.8797691,-0.309927,-200.20056
22:22:14.947;-0.42041135,-0.7436233,8.084666,-0.052787066,0.013196826,0.05856073,-24.12054,-1.0588522,17.314436,-200.26205,0.0,0.0,0.0,0.0,1001.19995,25.9,100.80804,9999999.0,100.80804,9999999.0,-4.2220864,-4.1964126,-210.69054,-5.248197,-2.9642706,-1.1436836,0.88029695,-0.31490877,-200.23471
22:22:15.002;-0.42060497,-0.7481276,8.091959,-0.11382222,-0.16990864,-0.12454474,-24.117233,-1.0494817,17.31075,-200.28394,0.0,0.0,0.0,0.0,1001.19995,25.9,100.80804,9999999.0,100.80804,9999999.0,-4.222671,-4.204468,-210.78816,-5.275082,-2.9628375,-1.1484641,0.8731608,-0.31244922,-200.26205
22:22:15.043;-0.43608278,-0.75939244,8.090132,0.008248091,0.13526714,0.05856073,-24.132986,-1.0419854,17.2894,-200.30331,0.0,0.0,0.0,0.0,1001.16,25.9,101.1436,9999999.0,101.1436,9999999.0,-4.227061,-4.1971984,-210.8905,-5.354714,-3.0719538,-1.1480434,0.8800594,-0.318801,-200.28394
22:22:15.084;-0.42548066,-0.76074284,8.088671,0.008248091,0.1963023,0.05856073,-24.14559,-1.0359883,17.27232,-200.31882,0.0,0.0,0.0,0.0,1001.22,25.9,100.64157,9999999.0,100.64157,9999999.0,-4.220201,-4.1870985,-210.98859,-5.3655124,-2.9978948,-1.1476722,0.888893,-0.31616575,-200.30331
22:22:15.121;-0.43232188,-0.7541617,8.087502,0.008248091,0.013196826,0.18063104,-24.137272,-1.0311906,17.258656,-200.32932,0.0,0.0,0.0,0.0,1001.13995,25.9,101.312706,9999999.0,101.312706,9999999.0,-4.209455,-4.185721,-211.08292,-5.319889,-3.0466728,-1.147367,0.8893813,-0.313999,-200.31882
22:22:15.159;-0.4301334,-0.7565583,8.094228,0.008248091,0.13526714,-0.1855799,-24.130617,-1.0273526,17.247725,-200.33774,0.0,0.0,0.0,0.0,1001.13995,25.9,101.312706,9999999.0,101.312706,9999999.0,-4.208347,-4.1797166,-211.16882,-5.332377,-3.0287035,-1.1470536,0.8945214,-0.30713502,-200.32932
22:22:15.203;-0.43604407,-0.75847554,8.099608,0.008248091,0.13526714,-0.1855799,-24.143694,-1.0242821,17.23898,-200.34634,0.0,0.0,0.0,0.0,1001.16,25.9,101.1436,9999999.0,101.1436,9999999.0,-4.202608,-4.1740866,-211.2612,-5.3420844,-3.068158,-1.1466907,0.9004732,-0.31530052,-200.33774
22:22:15.238;-0.4407726,-0.7676708,8.0962515,-0.23589253,0.1963023,0.05856073,-24.117355,-1.0402256,17.231983,-200.30588,0.0,0.0,0.0,0.0,1001.07996,25.9,101.81738,9999999.0,101.81738,9999999.0,-4.2068667,-4.1780424,-211.35826,-5.4085193,-3.1023085,-1.1549469,0.90734375,-0.32179582,-200.34634
22:22:15.281;-0.42923254,-0.7597041,8.085905,-0.11382222,0.013196826,-0.06350958,-24.096285,-1.0529805,17.226387,-200.27347,0.0,0.0,0.0,0.0,1001.13995,25.9,101.312706,9999999.0,101.312706,9999999.0,-4.206476,-4.1822977,-211.4501,-5.3599157,-3.025341,-1.1598413,0.9079112,-0.3192777,-200.30588
22:22:15.326;-0.4353234,-0.76099217,8.085289,-0.052787066,0.13526714,-0.0024744272,-24.097828,-1.0447844,17.22191,-200.29306,0.0,0.0,0.0,0.0,1001.22,25.9,100.64157,9999999.0,100.64157,9999999.0,-4.2083106,-4.179679,-211.54219,-5.3691416,-3.068375,-1.162164,0.91386294,-0.32207212,-200.27347
22:22:15.366;-0.4325346,-0.7696841,8.092458,0.06928325,0.07423198,-0.1855799,-24.099062,-1.0566275,17.218328,-200.2651,0.0,0.0,0.0,0.0,1001.25995,25.9,100.30336,9999999.0,100.30336,9999999.0,-4.2018104,-4.175707,-211.63293,-5.4254336,-3.0457776,-1.1593233,0.9169065,-0.32217357,-200.29306
22:22:15.414;-0.43030357,-0.7766376,8.090531,0.06928325,0.1963023,-0.12454474,-24.10005,-1.066102,17.215464,-200.2427,0.0,0.0,0.0,0.0,1001.27997,25.9,100.136894,9999999.0,100.136894,9999999.0,-4.1984444,-4.165853,-211.73004,-5.475524,-3.030564,-1.1559978,0.92632896,-0.3310814,-200.2651
22:22:15.455;-0.42851877,-0.76687753,8.08899,0.06928325,0.1963023,0.05856073,-24.11924,-1.0552816,17.231571,-200.27039,0.0,0.0,0.0,0.0,1001.16,25.9,101.1436,9999999.0,101.1436,9999999.0,-4.1879163,-4.156649,-211.82976,-5.408207,-3.0189297,-1.1531571,0.9343774,-0.33618772,-200.2427
22:22:15.494;-0.4270909,-0.7590695,8.087757,-0.052787066,0.13526714,0.05856073,-24.116192,-1.0466254,17.226057,-200.29059,0.0,0.0,0.0,0.0,1001.19995,25.9,100.80804,9999999.0,100.80804,9999999.0,-4.1826196,-4.15399,-211.9258,-5.354323,-3.009614,-1.1552159,0.9396528,-0.33390385,-200.27039
22:22:15.532;-0.42594862,-0.7604845,8.094432,-0.11382222,0.013196826,0.05856073,-24.113754,-1.0397003,17.221645,-200.30676,0.0,0.0,0.0,0.0,1001.06,25.9,101.98649,9999999.0,101.98649,9999999.0,-4.182347,-4.15819,-212.01814,-5.3599,-2.9990814,-1.1595411,0.94015425,-0.33167854,-200.29059
22:22:15.572;-0.4250348,-0.7616165,8.092111,-0.23589253,-0.16990864,-0.0024744272,-24.111803,-1.0157602,17.236517,-200.36334,0.0,0.0,0.0,0.0,1001.16,25.9,101.1436,9999999.0,101.1436,9999999.0,-4.191429,-4.173964,-212.10672,-5.36939,-2.9934692,-1.168741,0.9335278,-0.32939467,-200.30676
22:22:15.605;-0.43196517,-0.7548607,8.097915,-0.23589253,0.013196826,0.119595885,-24.110243,-0.99660814,17.248413,-200.40863,0.0,0.0,0.0,0.0,1001.1,25.9,101.64828,9999999.0,101.64828,9999999.0,-4.204705,-4.180977,-212.19475,-5.3180156,-3.040266,-1.1767614,0.93397653,-0.3294788,-200.36334
22:22:15.638;-0.42984805,-0.74945605,8.087235,-0.23589253,0.013196826,0.119595885,-24.127394,-0.99968654,17.23953,-200.40302,0.0,0.0,0.0,0.0,1001.1,25.9,101.64828,9999999.0,101.64828,9999999.0,-4.210729,-4.186679,-212.27805,-5.287142,-3.0295324,-1.1845459,0.934412,-0.32553214,-200.40863
22:22:15.676;-0.43581578,-0.7527937,8.071031,-0.052787066,0.13526714,-0.12454474,-24.141115,-1.0021492,17.232424,-200.39853,0.0,0.0,0.0,0.0,1001.16,25.9,101.1436,9999999.0,101.1436,9999999.0,-4.2113295,-4.183615,-212.3551,-5.3209157,-3.0774977,-1.1865518,0.9395521,-0.3209875,-200.40302
22:22:15.716;-0.44058996,-0.74780244,8.081051,-0.17485738,0.13526714,0.05856073,-24.133692,-0.9857194,17.263538,-200.43674,0.0,0.0,0.0,0.0,1001.19995,25.9,100.80804,9999999.0,100.80804,9999999.0,-4.2123804,-4.1849804,-212.43542,-5.2791705,-3.107504,-1.193546,0.9449628,-0.32596928,-200.39853
22:22:15.762;-0.43674788,-0.7438094,8.073744,-0.11382222,0.1963023,-0.06350958,-24.127754,-1.0093755,17.270031,-200.38007,0.0,0.0,0.0,0.0,1001.13995,25.9,101.312706,9999999.0,101.312706,9999999.0,-4.2115316,-4.1801186,-212.51225,-5.255986,-3.0833564,-1.1987818,0.9539927,-0.32327548,-200.43674
22:22:15.798;-0.43367422,-0.73295355,8.083221,0.008248091,0.13526714,0.18063104,-24.123003,-1.0283004,17.275225,-200.33475,0.0,0.0,0.0,0.0,1001.22,25.9,100.64157,9999999.0,100.64157,9999999.0,-4.199701,-4.172105,-212.58865,-5.173778,-3.0585167,-1.1984849,0.95886236,-0.32556182,-200.38007
22:22:15.840;-0.43887672,-0.7395917,8.090803,-0.2969277,0.13526714,-0.06350958,-24.100803,-1.0250404,17.279379,-200.34024,0.0,0.0,0.0,0.0,1001.25995,25.9,100.30336,9999999.0,100.30336,9999999.0,-4.205191,-4.1773605,-212.65518,-5.215348,-3.0920372,-1.2109559,0.9645436,-0.3179753,-200.33475
22:22:15.881;-0.42005438,-0.74490225,8.0968685,-0.11382222,0.1963023,-0.06350958,-24.083042,-1.0224323,17.282703,-200.34464,0.0,0.0,0.0,0.0,1001.19995,25.9,100.80804,9999999.0,100.80804,9999999.0,-4.2033734,-4.170564,-212.72305,-5.2493277,-2.9572973,-1.2156225,0.972592,-0.3205792,-200.34024
22:22:15.916;-0.41265795,-0.7414893,8.101721,-0.052787066,0.37940776,-0.12454474,-24.105635,-1.0203459,17.303762,-200.35184,0.0,0.0,0.0,0.0,1001.25995,25.9,100.30336,9999999.0,100.30336,9999999.0,-4.1934147,-4.154607,-212.79182,-5.222549,-2.9037032,-1.21747,0.98587126,-0.32280204,-200.34464
22:22:15.958;-0.41440225,-0.7387589,8.113264,-0.052787066,0.013196826,0.119595885,-24.123709,-1.0370767,17.28381,-200.314,0.0,0.0,0.0,0.0,1001.25995,25.9,100.30336,9999999.0,100.30336,9999999.0,-4.177608,-4.1517515,-212.8645,-5.1960235,-2.9119372,-1.2196871,0.9864255,-0.3280329,-200.35184
22:22:15.989;-0.4157977,-0.7365746,8.107176,0.19135356,-0.10887349,0.05856073,-24.138166,-1.0504614,17.267847,-200.28375,0.0,0.0,0.0,0.0,1001.22,25.9,100.64157,9999999.0,100.64157,9999999.0,-4.1665945,-4.1450496,-212.93132,-5.184558,-2.9239693,-1.2137551,0.98305047,-0.32432544,-200.314
22:22:16.023;-0.4245755,-0.73482716,8.094645,0.1303184,0.13526714,-0.12454474,-24.149733,-1.0243691,17.273478,-200.34674,0.0,0.0,0.0,0.0,1001.19995,25.9,100.80804,9999999.0,100.80804,9999999.0,-4.161406,-4.1334753,-212.99426,-5.1799784,-2.9902196,-1.2093244,0.98764956,-0.32233438,-200.28375
22:22:16.061;-0.4239363,-0.7334292,8.09228,-0.052787066,0.013196826,-0.0024744272,-24.158987,-1.0034953,17.277983,-200.3971,0.0,0.0,0.0,0.0,1001.16,25.9,101.1436,9999999.0,101.1436,9999999.0,-4.1562567,-4.13236,-213.06197,-5.1716967,-2.986636,-1.2113831,0.98816425,-0.32719162,-200.34674
22:22:16.097;-0.40810207,-0.73231083,8.090389,-0.17485738,0.07423198,0.18063104,-24.14799,-0.98679626,17.281586,-200.43558,0.0,0.0,0.0,0.0,1001.1,25.9,101.64828,9999999.0,101.64828,9999999.0,-4.159022,-4.1308146,-213.12941,-5.1655664,-2.8759754,-1.2175031,0.99076235,-0.32727823,-200.3971
22:22:16.132;-0.41075754,-0.73907757,8.088877,0.06928325,0.13526714,-0.0024744272,-24.13919,-0.973437,17.284468,-200.46637,0.0,0.0,0.0,0.0,1001.07996,25.9,101.81738,9999999.0,101.81738,9999999.0,-4.150032,-4.1201587,-213.1899,-5.213917,-2.8949752,-1.2150089,0.995632,-0.3207755,-200.43558
22:22:16.181;-0.41288194,-0.7368295,8.095327,0.008248091,0.25733745,-0.24661505,-24.150553,-0.9811496,17.268373,-200.44919,0.0,0.0,0.0,0.0,1001.25995,25.9,100.30336,9999999.0,100.30336,9999999.0,-4.141255,-4.104731,-213.2499,-5.193967,-2.9076993,-1.2146212,1.0077269,-0.3208918,-200.46637
22:22:16.224;-0.41458145,-0.73503107,8.092827,0.06928325,0.013196826,-0.06350958,-24.141243,-1.0057197,17.2739,-200.39008,0.0,0.0,0.0,0.0,1001.13995,25.9,101.312706,9999999.0,101.312706,9999999.0,-4.1233068,-4.098684,-213.319,-5.1828914,-2.920599,-1.2115728,1.0083076,-0.33174285,-200.44919
22:22:16.264;-0.41594106,-0.7489152,8.10615,0.008248091,0.1963023,0.119595885,-24.133795,-1.0253757,17.278318,-200.34274,0.0,0.0,0.0,0.0,1001.13995,25.9,101.312706,9999999.0,101.312706,9999999.0,-4.1218185,-4.090186,-213.38803,-5.271592,-2.9249382,-1.2112428,1.0161597,-0.33428323,-200.39008
22:22:16.310;-0.41702875,-0.7446996,8.086162,0.008248091,0.13526714,-0.12454474,-24.127836,-1.0227005,17.300255,-200.34851,0.0,0.0,0.0,0.0,1001.16,25.9,101.1436,9999999.0,101.1436,9999999.0,-4.113108,-4.083546,-213.44933,-5.2548995,-2.9398885,-1.2108634,1.0223819,-0.3287818,-200.34274
22:22:16.353;-0.4178989,-0.75665003,8.085494,-0.2969277,-0.04783833,-0.06350958,-24.12307,-1.0389605,17.317804,-200.30948,0.0,0.0,0.0,0.0,1001.25995,25.9,100.30336,9999999.0,100.30336,9999999.0,-4.1211705,-4.09968,-213.51477,-5.339151,-2.9458525,-1.2236313,1.0203248,-0.33413723,-200.34851
22:22:16.399;-0.42625645,-0.7508875,8.08496,-0.23589253,0.13526714,-0.06350958,-24.119255,-1.0519683,17.331844,-200.27823,0.0,0.0,0.0,0.0,1001.16,25.9,101.1436,9999999.0,101.1436,9999999.0,-4.134527,-4.105707,-213.58104,-5.2987847,-3.0050538,-1.2347182,1.0266824,-0.33712217,-200.30948
22:22:16.575;-0.44060394,-0.73861605,8.099855,-0.17485738,-0.04783833,-0.06350958,-24.134604,-1.0439746,17.343075,-200.29877,0.0,0.0,0.0,0.0,1001.25995,25.9,100.30336,9999999.0,100.30336,9999999.0,-4.156778,-4.1436276,-213.65593,-5.2026734,-3.1007822,-1.264444,1.0185499,-0.3479188,-200.27823
22:22:16.622;-0.4290976,-0.7364603,8.104111,0.008248091,-0.10887349,-0.0024744272,-24.146883,-1.0375798,17.33366,-200.31516,0.0,0.0,0.0,0.0,1001.19995,25.9,100.80804,9999999.0,100.80804,9999999.0,-4.1640882,-4.146084,-213.7326,-5.1852627,-3.0184598,-1.2640646,1.0135417,-0.35084024,-200.29877
22:22:16.679;-0.4352154,-0.7347357,8.0998535,0.06928325,0.25733745,-0.0024744272,-24.156706,-1.0508639,17.326128,-200.28473,0.0,0.0,0.0,0.0,1001.22,25.9,100.64157,9999999.0,100.64157,9999999.0,-4.163009,-4.1273923,-213.80821,-5.175676,-3.0630655,-1.2603233,1.0274379,-0.35097387,-200.31516
22:22:16.714;-0.43244824,-0.73335606,8.096448,-0.11382222,0.07423198,-0.06350958,-24.146164,-1.043091,17.320103,-200.30203,0.0,0.0,0.0,0.0,1001.22,25.9,100.64157,9999999.0,100.64157,9999999.0,-4.1531177,-4.1277533,-213.8818,-5.1682587,-3.0449407,-1.2653315,1.0307041,-0.35108274,-200.28473
22:22:16.783;-0.4302345,-0.73991376,8.109046,-0.23589253,-0.10887349,0.05856073,-24.137732,-1.0552728,17.296883,-200.27231,0.0,0.0,0.0,0.0,1001.19995,25.9,100.80804,9999999.0,100.80804,9999999.0,-4.162038,-4.1451554,-213.95769,-5.2062616,-3.024503,-1.2783056,1.0247161,-0.35457578,-200.30203
22:22:16.856;-0.4284635,-0.7451599,8.111464,-0.17485738,0.13526714,-0.12454474,-24.130985,-1.0650183,17.278307,-200.24854,0.0,0.0,0.0,0.0,1001.19995,25.9,100.80804,9999999.0,100.80804,9999999.0,-4.172394,-4.1450567,-214.0297,-5.241481,-3.011011,-1.2837262,1.0289094,-0.3527604,-200.27231
22:22:16.868;-0.4270467,-0.74935687,8.105736,-0.11382222,-0.04783833,-0.0024744272,-24.125587,-1.0544146,17.281845,-200.2731,0.0,0.0,0.0,0.0,1001.19995,25.9,100.80804,9999999.0,100.80804,9999999.0,-4.174898,-4.154508,-214.1077,-5.2745776,-3.0030296,-1.2911247,1.0258,-0.36085582,-200.24854
22:22:16.934;-0.4335747,-0.74505293,8.108815,-0.052787066,0.1963023,-0.1855799,-24.12127,-1.0459317,17.284676,-200.29276,0.0,0.0,0.0,0.0,1001.25995,25.9,100.30336,9999999.0,100.30336,9999999.0,-4.1798325,-4.1439185,-214.18481,-5.2422557,-3.047851,-1.294767,1.0393449,-0.36102656,-200.2731
22:22:16.980;-0.43879712,-0.7416098,8.111279,-0.17485738,0.13526714,-0.12454474,-24.117815,-1.0391454,17.268541,-200.3085,0.0,0.0,0.0,0.0,1001.1,25.9,101.64828,9999999.0,101.64828,9999999.0,-4.17308,-4.145327,-214.26897,-5.216413,-3.0836835,-1.3026356,1.045432,-0.36937764,-200.29276
22:22:17.037;-0.43531358,-0.73119384,8.105588,-0.052787066,0.25733745,-0.12454474,-24.115051,-1.0337163,17.255632,-200.32108,0.0,0.0,0.0,0.0,1001.22,25.9,100.64157,9999999.0,100.64157,9999999.0,-4.168314,-4.1318073,-214.3587,-5.147243,-3.0617292,-1.3056444,1.0601002,-0.3764767,-200.3085
22:22:17.106;-0.4401882,-0.7305225,8.101035,0.008248091,0.13526714,0.05856073,-24.11284,-1.029373,17.245306,-200.33118,0.0,0.0,0.0,0.0,1001.13995,25.9,101.312706,9999999.0,101.312706,9999999.0,-4.1515102,-4.121155,-214.45544,-5.145243,-3.0976932,-1.3050671,1.0695689,-0.38519484,-200.32108
22:22:17.178;-0.428765,-0.7299855,8.097393,-0.11382222,0.013196826,0.05856073,-24.111073,-1.0442984,17.237045,-200.2956,0.0,0.0,0.0,0.0,1001.19995,25.9,100.80804,9999999.0,100.80804,9999999.0,-4.1484194,-4.1250386,-214.54695,-5.1441603,-3.0188181,-1.3120102,1.0703739,-0.38162264,-200.33118
22:22:17.224;-0.4272879,-0.7372173,8.09448,-0.23589253,0.013196826,-0.06350958,-24.109657,-1.0746387,17.230436,-200.22348,0.0,0.0,0.0,0.0,1001.13995,25.9,101.312706,9999999.0,101.312706,9999999.0,-4.15965,-4.135905,-214.63263,-5.196749,-3.0092683,-1.325456,1.0711261,-0.3782847,-200.2956
22:22:17.281;-0.43376768,-0.7430028,8.09981,0.008248091,0.07423198,-0.06350958,-24.090126,-1.080511,17.24355,-200.20746,0.0,0.0,0.0,0.0,1001.01996,25.9,102.32206,9999999.0,102.32206,9999999.0,-4.157399,-4.131157,-214.71872,-5.2336674,-3.0526307,-1.3249859,1.0753573,-0.38190475,-200.22348
22:22:17.324;-0.43129003,-0.7399697,8.1040745,-0.11382222,0.1963023,0.05856073,-24.074501,-1.0852088,17.25404,-200.19464,0.0,0.0,0.0,0.0,1001.16,25.9,101.1436,9999999.0,101.1436,9999999.0,-4.157526,-4.1267786,-214.80544,-5.2097845,-3.0337486,-1.3298802,1.0837983,-0.38463566,-200.20746
22:22:17.372;-0.4446308,-0.72988176,8.107486,-0.11382222,-0.04783833,-0.06350958,-24.062,-1.070567,17.244032,-200.22809,0.0,0.0,0.0,0.0,1001.25995,25.9,100.30336,9999999.0,100.30336,9999999.0,-4.152105,-4.1337485,-214.88753,-5.1365457,-3.1264524,-1.335116,1.0815977,-0.38194185,-200.19464
22:22:17.415;-0.4323191,-0.7294729,8.102553,-0.11382222,-0.04783833,0.05856073,-24.052,-1.0772536,17.254425,-200.21115,0.0,0.0,0.0,0.0,1001.22,25.9,100.64157,9999999.0,100.64157,9999999.0,-4.1588373,-4.1386085,-214.97145,-5.1372013,-3.0418925,-1.340238,1.079445,-0.38479978,-200.22809
22:22:17.481;-0.43779263,-0.72914577,8.098608,0.06928325,-0.10887349,-0.12454474,-24.044,-1.1010028,17.28114,-200.15381,0.0,0.0,0.0,0.0,1001.16,25.9,101.1436,9999999.0,101.1436,9999999.0,-4.1545744,-4.1394143,-215.04996,-5.1372066,-3.0818286,-1.3361503,1.0730214,-0.3813447,-200.21115
22:22:17.533;-0.43451,-0.7365455,8.095451,-0.11382222,0.1963023,-0.0024744272,-24.037601,-1.1200023,17.302511,-200.10794,0.0,0.0,0.0,0.0,1001.13995,25.9,101.312706,9999999.0,101.312706,9999999.0,-4.167031,-4.133534,-215.13295,-5.191177,-3.0596948,-1.3428658,1.0846032,-0.38869286,-200.15381
22:22:17.577;-0.4318839,-0.7424653,8.100588,0.19135356,0.13526714,-0.06350958,-24.032482,-1.1168019,17.282808,-200.11499,0.0,0.0,0.0,0.0,1001.16,25.9,101.1436,9999999.0,101.1436,9999999.0,-4.147389,-4.1195235,-215.21347,-5.229469,-3.0391278,-1.3346376,1.0904197,-0.38879925,-200.10794
22:22:17.612;-0.42978302,-0.73953974,8.104696,0.1303184,-0.10887349,0.18063104,-24.046785,-1.0958415,17.285446,-200.16638,0.0,0.0,0.0,0.0,1001.16,25.9,101.1436,9999999.0,101.1436,9999999.0,-4.136664,-4.1182313,-215.29475,-5.206429,-3.0229528,-1.3299462,1.0865002,-0.3910856,-200.11499
22:22:17.652;-0.43576375,-0.73719925,8.100322,-0.052787066,-0.10887349,-0.06350958,-24.058228,-1.0790732,17.287558,-200.20749,0.0,0.0,0.0,0.0,1001.13995,25.9,101.312706,9999999.0,101.312706,9999999.0,-4.141788,-4.124553,-215.36838,-5.1926184,-3.066658,-1.3320576,1.0821452,-0.38386035,-200.16638
22:22:17.692;-0.4328869,-0.7353269,8.096823,-0.052787066,-0.16990864,0.05856073,-24.067383,-1.0656586,17.307646,-200.24033,0.0,0.0,0.0,0.0,1001.22,25.9,100.64157,192.48708,103.742256,100.64157,-4.1477675,-4.132429,-215.44383,-5.1818194,-3.0478172,-1.334169,1.0753489,-0.38640073,-200.20749
22:22:17.771;-0.4305854,-0.7261675,8.109346,-0.23589253,0.013196826,-0.0024744272,-24.074707,-1.0733268,17.323717,-200.2229,0.0,0.0,0.0,0.0,1001.22,25.9,100.64157,192.55618,103.74294,100.64157,-4.1690845,-4.1452923,-215.51419,-5.109856,-3.0273135,-1.3516251,1.0763254,-0.38206723,-200.24033
22:22:17.857;-0.4210828,-0.72650146,8.104042,-0.11382222,0.25733745,-0.12454474,-24.098967,-1.0794615,17.318174,-200.2109,0.0,0.0,0.0,0.0,1001.01996,25.8,102.32206,9999999.0,102.32206,9999999.0,-4.1746306,-4.1279435,-215.58301,-5.115825,-2.9625318,-1.3617553,1.0992285,-0.38228744,-200.2229
22:22:17.927;-0.4288036,-0.7267686,8.092137,0.1303184,0.13526714,-0.12454474,-24.099974,-1.0659692,17.31374,-200.24301,0.0,0.0,0.0,0.0,1001.06,25.9,101.98649,9999999.0,101.98649,9999999.0,-4.1395817,-4.1085963,-215.65814,-5.1249104,-3.0211377,-1.3532846,1.1080209,-0.39038286,-200.2109
22:22:18.018;-0.4349802,-0.7423052,8.082613,0.008248091,0.07423198,-0.0024744272,-24.119179,-1.0735754,17.310192,-200.22699,0.0,0.0,0.0,0.0,1001.22,25.9,100.64157,9999999.0,100.64157,9999999.0,-4.130428,-4.1020427,-215.74437,-5.2397704,-3.0676177,-1.3524762,1.1152956,-0.40258825,-200.24301
22:22:18.045;-0.43226007,-0.74707305,8.074994,0.1303184,0.13526714,0.05856073,-24.134542,-1.0796603,17.307354,-200.2142,0.0,0.0,0.0,0.0,1001.1,25.9,101.64828,9999999.0,101.64828,9999999.0,-4.1223745,-4.097636,-215.82861,-5.278264,-3.0511532,-1.3492182,1.1186774,-0.40265012,-200.22699
22:22:18.082;-0.43008396,-0.7355645,8.084222,-0.052787066,0.13526714,-0.06350958,-24.146833,-1.0845282,17.305082,-200.20398,0.0,0.0,0.0,0.0,1001.07996,25.9,101.81738,9999999.0,101.81738,9999999.0,-4.1212745,-4.0949974,-215.90897,-5.1915927,-3.032784,-1.3510131,1.1232765,-0.40065905,-200.2142
22:22:18.123;-0.42068163,-0.73401904,8.091604,-0.17485738,0.25733745,-0.0024744272,-24.119867,-1.0700226,17.321667,-200.2355,0.0,0.0,0.0,0.0,1001.13995,25.9,101.312706,9999999.0,101.312706,9999999.0,-4.124507,-4.0896955,-215.99037,-5.17637,-2.9639735,-1.3590565,1.135114,-0.4035805,-200.20398
22:22:18.180;-0.42848265,-0.7404441,8.097509,-0.11382222,0.013196826,-0.06350958,-24.135094,-1.0768181,17.316534,-200.22101,0.0,0.0,0.0,0.0,1001.22,25.9,100.64157,9999999.0,100.64157,9999999.0,-4.118496,-4.095731,-216.0709,-5.2173934,-3.0164406,-1.3654305,1.1358529,-0.40371907,-200.2355
22:22:18.240;-0.41940057,-0.7379228,8.102234,-0.052787066,0.013196826,0.05856073,-24.128876,-1.0822545,17.312428,-200.20746,0.0,0.0,0.0,0.0,1001.16,25.9,101.1436,9999999.0,101.1436,9999999.0,-4.1209126,-4.0967255,-216.15335,-5.19702,-2.9509974,-1.3686504,1.136658,-0.40759316,-200.22101
22:22:18.292;-0.4274578,-0.7435671,8.106013,0.06928325,-0.04783833,-0.24661505,-24.123901,-1.0682037,17.309141,-200.24023,0.0,0.0,0.0,0.0,1001.16,25.9,101.1436,9999999.0,101.1436,9999999.0,-4.1159377,-4.096177,-216.2309,-5.2338605,-3.0060093,-1.3650477,1.1341704,-0.404548,-200.20746
22:22:18.340;-0.4339036,-0.7404212,8.109037,-0.052787066,0.07423198,-0.06350958,-24.13832,-1.0753629,17.288113,-200.2248,0.0,0.0,0.0,0.0,1001.1,25.9,101.64828,192.55618,103.74294,101.64828,-4.1209307,-4.096025,-216.31914,-5.209693,-3.0502338,-1.3675815,1.1377336,-0.4163855,-200.24023
22:22:18.391;-0.43139878,-0.7379044,8.119118,0.008248091,-0.04783833,0.05856073,-24.149857,-1.0810903,17.27129,-200.21243,0.0,0.0,0.0,0.0,1001.07996,25.8,101.81738,192.55618,103.74294,101.81738,-4.1174645,-4.0977583,-216.40804,-5.185774,-3.029016,-1.3672186,1.1356287,-0.41917992,-200.2248
22:22:18.439;-0.42939493,-0.74355245,8.11952,-0.23589253,0.13526714,0.119595885,-24.140686,-1.0856723,17.257832,-200.20062,0.0,0.0,0.0,0.0,1001.16,25.9,101.1436,192.48708,103.742256,101.1436,-4.1330194,-4.103361,-216.49176,-5.2250586,-3.0146348,-1.3801928,1.1430684,-0.4159591,-200.21243
22:22:18.486;-0.4201304,-0.74040943,8.119843,-0.17485738,0.3183726,-0.0024744272,-24.133348,-1.0893378,17.265465,-200.19116,0.0,0.0,0.0,0.0,1001.13995,25.9,101.312706,192.55618,103.74294,101.312706,-4.133412,-4.095073,-216.56807,-5.2031965,-2.9496953,-1.388411,1.158032,-0.41033807,-200.20062
22:22:18.529;-0.42038023,-0.7455565,8.104777,-0.17485738,0.1963023,-0.1855799,-24.12748,-1.0922703,17.271572,-200.18356,0.0,0.0,0.0,0.0,1001.22,25.9,100.64157,192.55618,103.74294,100.64157,-4.1255164,-4.0938683,-216.64276,-5.2488165,-2.956707,-1.3959299,1.1664729,-0.41044447,-200.19116
22:22:18.572;-0.41291863,-0.7420126,8.100387,-0.052787066,0.013196826,-0.0024744272,-24.141184,-1.0946162,17.258059,-200.17947,0.0,0.0,0.0,0.0,1001.13995,25.9,101.312706,192.55618,103.74294,101.312706,-4.118757,-4.0939455,-216.72363,-5.22706,-2.905991,-1.3981998,1.1670403,-0.4184244,-200.18356
22:22:18.606;-0.4146108,-0.746839,8.112197,0.008248091,-0.04783833,-0.12454474,-24.133747,-1.0964929,17.228848,-200.17422,0.0,0.0,0.0,0.0,1001.16,25.9,101.1436,190.06802,103.71806,101.1436,-4.116856,-4.0943832,-216.80289,-5.2532167,-2.9135165,-1.3979194,1.1654139,-0.41850853,-200.17947
22:22:18.649;-0.42362598,-0.7353772,8.113984,0.06928325,0.013196826,0.05856073,-24.127798,-1.0979943,17.205479,-200.17004,0.0,0.0,0.0,0.0,1001.22,25.9,100.64157,190.06802,103.71806,100.64157,-4.113008,-4.0897217,-216.8857,-5.1716113,-2.9764855,-1.3949403,1.1659813,-0.42386395,-200.17422
22:22:18.706;-0.41551524,-0.7491921,8.100091,-0.052787066,-0.16990864,-0.0024744272,-24.12304,-1.0807955,17.205183,-200.2103,0.0,0.0,0.0,0.0,1001.13995,25.9,101.312706,189.9989,103.71737,101.312706,-4.116425,-4.10207,-216.96352,-5.2774563,-2.924103,-1.3979491,1.1562965,-0.420526,-200.17004
22:22:18.775;-0.41668808,-0.74492115,8.096638,-0.17485738,-0.10887349,-0.24661505,-24.137632,-1.0670364,17.204947,-200.24445,0.0,0.0,0.0,0.0,1001.22,25.9,100.64157,190.06802,103.71806,100.64157,-4.1368465,-4.120146,-217.04073,-5.24972,-2.9337215,-1.4100143,1.1487843,-0.42069674,-200.2103
22:22:18.823;-0.41762638,-0.74916583,8.101537,-0.052787066,0.07423198,-0.0024744272,-24.149305,-1.0744292,17.186357,-200.22815,0.0,0.0,0.0,0.0,1001.27997,25.9,100.136894,190.06802,103.71806,100.136894,-4.1457515,-4.118113,-217.1287,-5.276268,-2.9384155,-1.4125481,1.1523474,-0.43253425,-200.24445
22:22:18.903;-0.418377,-0.7449001,8.097795,0.008248091,0.1963023,-0.06350958,-24.158644,-1.0619433,17.189886,-200.2587,0.0,0.0,0.0,0.0,1001.22,25.9,100.64157,192.55618,103.74294,100.64157,-4.1400795,-4.1007915,-217.21477,-5.248773,-2.945176,-1.4118882,1.1680516,-0.4327322,-200.22815
22:22:18.965;-0.4189775,-0.74148756,8.094801,0.06928325,0.1963023,-0.06350958,-24.129314,-1.0703546,17.192709,-200.23572,0.0,0.0,0.0,0.0,1001.16,25.9,101.1436,192.55618,103.74294,101.1436,-4.1191015,-4.083804,-217.30359,-5.226757,-2.9505882,-1.4075927,1.1802224,-0.4366698,-200.2587
22:22:19.006;-0.42711934,-0.7540804,8.100067,0.06928325,0.1963023,-0.0024744272,-24.124252,-1.0586836,17.213367,-200.26285,0.0,0.0,0.0,0.0,1001.06,25.8,101.98649,9999999.0,101.98649,9999999.0,-4.105571,-4.075681,-217.39272,-5.311317,-3.005459,-1.404752,1.1882708,-0.4392737,-200.23572
22:22:19.048;-0.41830993,-0.7488318,8.088957,-0.11382222,0.13526714,0.05856073,-24.120201,-1.0493469,17.229895,-200.28455,0.0,0.0,0.0,0.0,1001.1,25.8,101.64828,9999999.0,101.64828,9999999.0,-4.1044936,-4.075792,-217.4807,-5.28204,-2.947758,-1.4095325,1.1939521,-0.4393776,-200.26285
22:22:19.090;-0.41892385,-0.7446329,8.095392,0.1303184,0.13526714,0.119595885,-24.09856,-1.0602776,17.243116,-200.25638,0.0,0.0,0.0,0.0,1001.16,25.9,101.1436,9999999.0,101.1436,9999999.0,-4.0938807,-4.0654335,-217.56496,-5.2484264,-2.9498937,-1.4040592,1.1996334,-0.43691805,-200.28455
22:22:19.136;-0.419415,-0.7489352,8.10054,0.25238872,0.13526714,-0.1855799,-24.099648,-1.069022,17.235292,-200.23575,0.0,0.0,0.0,0.0,1001.1,25.8,101.64828,9999999.0,101.64828,9999999.0,-4.078252,-4.049616,-217.64157,-5.275237,-2.951345,-1.3924493,1.2058556,-0.43141663,-200.25638
22:22:19.173;-0.41214645,-0.74471563,8.096997,0.06928325,-0.10887349,-0.12454474,-24.100517,-1.0760176,17.229034,-200.21924,0.0,0.0,0.0,0.0,1001.1,25.8,101.64828,9999999.0,101.64828,9999999.0,-4.0710754,-4.0516353,-217.72298,-5.248198,-2.90168,-1.3898858,1.2018273,-0.4382831,-200.23575
22:22:19.225;-0.4216545,-0.74134,8.086501,-0.11382222,0.07423198,-0.12454474,-24.119614,-1.0816141,17.224028,-200.20798,0.0,0.0,0.0,0.0,1001.16,25.9,101.1436,9999999.0,101.1436,9999999.0,-4.0810223,-4.0550675,-217.80876,-5.2309527,-2.9724288,-1.3958045,1.2056874,-0.4447594,-200.21924
22:22:19.266;-0.42926094,-0.7463009,8.085766,-0.23589253,0.1963023,0.119595885,-24.116491,-1.0860913,17.220022,-200.19705,0.0,0.0,0.0,0.0,1001.1,25.8,101.64828,9999999.0,101.64828,9999999.0,-4.0887637,-4.059622,-217.8976,-5.2659774,-3.0260546,-1.4054761,1.2137358,-0.44986573,-200.20798
22:22:19.309;-0.42768466,-0.7426082,8.085177,-0.052787066,0.013196826,-0.0024744272,-24.113993,-1.089673,17.216818,-200.1883,0.0,0.0,0.0,0.0,1001.27997,25.9,100.136894,9999999.0,100.136894,9999999.0,-4.0854635,-4.063504,-217.97942,-5.240499,-3.0153058,-1.407746,1.2143033,-0.4447231,-200.19705
22:22:19.363;-0.41876218,-0.74731547,8.092368,-0.11382222,-0.04783833,-0.06350958,-24.111994,-1.0925385,17.214254,-200.18127,0.0,0.0,0.0,0.0,1001.19995,25.9,100.80804,9999999.0,100.80804,9999999.0,-4.0936413,-4.0732956,-218.05956,-5.2691855,-2.9497588,-1.4138924,1.21172,-0.44485673,-200.1883
22:22:19.404;-0.4116242,-0.7510813,8.098121,-0.052787066,0.07423198,-0.0024744272,-24.110395,-1.0764308,17.249004,-200.2193,0.0,0.0,0.0,0.0,1001.22,25.9,100.64157,9999999.0,100.64157,9999999.0,-4.0998445,-4.0727406,-218.14056,-5.2920938,-2.897403,-1.4161094,1.2148378,-0.44752413,-200.18127
22:22:19.444;-0.4059138,-0.75409395,8.118046,-0.23589253,0.013196826,-0.0024744272,-24.109116,-1.0635446,17.276804,-200.24973,0.0,0.0,0.0,0.0,1001.22,25.9,100.64157,9999999.0,100.64157,9999999.0,-4.1063104,-4.0806847,-218.2208,-5.3004527,-2.850236,-1.4253093,1.2153524,-0.44762063,-200.2193
22:22:19.493;-0.40900695,-0.7488426,8.126325,-0.11382222,0.1963023,-0.06350958,-24.071293,-1.0716357,17.280643,-200.22653,0.0,0.0,0.0,0.0,1001.19995,25.8,100.80804,9999999.0,100.80804,9999999.0,-4.109703,-4.0754666,-218.30016,-5.258331,-2.869193,-1.4308866,1.2249712,-0.44774187,-200.24973
22:22:19.537;-0.40382,-0.74464154,8.117624,-0.052787066,-0.04783833,0.05856073,-24.077835,-1.0597086,17.302114,-200.25555,0.0,0.0,0.0,0.0,1001.22,25.9,100.64157,9999999.0,100.64157,9999999.0,-4.100928,-4.0776925,-218.3802,-5.2347207,-2.8360054,-1.4332093,1.2228663,-0.45053628,-200.22653
22:22:19.582;-0.4073319,-0.74894214,8.110664,-0.17485738,0.07423198,-0.06350958,-24.083069,-1.0501668,17.319292,-200.27878,0.0,0.0,0.0,0.0,1001.16,25.9,101.1436,9999999.0,101.1436,9999999.0,-4.109233,-4.081033,-218.45667,-5.2691517,-2.8629205,-1.4410778,1.2262068,-0.44790104,-200.25555
22:22:19.635;-0.41014144,-0.7447212,8.105097,-0.17485738,0.013196826,-0.0024744272,-24.105656,-1.0425335,17.333035,-200.29922,0.0,0.0,0.0,0.0,1001.25995,25.9,100.30336,9999999.0,100.30336,9999999.0,-4.1133566,-4.0880985,-218.53534,-5.2431,-2.884731,-1.4503453,1.2269062,-0.45126703,-200.27878
22:22:19.690;-0.41238904,-0.7413444,8.0853195,0.19135356,0.1963023,-0.12454474,-24.123724,-1.0364268,17.344028,-200.31555,0.0,0.0,0.0,0.0,1001.13995,25.9,101.312706,9999999.0,101.312706,9999999.0,-4.1006637,-4.0662227,-218.61299,-5.2320485,-2.9076462,-1.4398209,1.2377028,-0.45140314,-200.29922
22:22:19.747;-0.41418713,-0.7463044,8.092482,-0.17485738,0.013196826,0.119595885,-24.11978,-1.0315415,17.334423,-200.32672,0.0,0.0,0.0,0.0,1001.07996,25.9,101.81738,9999999.0,101.81738,9999999.0,-4.0999093,-4.0755253,-218.69637,-5.2621756,-2.9175808,-1.4497877,1.238455,-0.4585022,-200.31555
22:22:19.818;-0.42328706,-0.742611,8.09055,-0.17485738,-0.16990864,-0.1855799,-24.116623,-1.0644332,17.345139,-200.24841,0.0,0.0,0.0,0.0,1001.13995,25.8,101.312706,9999999.0,101.312706,9999999.0,-4.1083555,-4.095161,-218.77173,-5.2372155,-2.982396,-1.4595797,1.2289401,-0.45180485,-200.32672
22:22:19.868;-0.43822843,-0.73965627,8.089005,0.06928325,0.07423198,-0.06350958,-24.114098,-1.0723466,17.33531,-200.22937,0.0,0.0,0.0,0.0,1001.06,25.8,101.98649,9999999.0,101.98649,9999999.0,-4.113184,-4.087955,-218.85585,-5.2169724,-3.0881555,-1.4550763,1.2337652,-0.46386755,-200.24841
22:22:19.923;-0.43485865,-0.73729247,8.09543,-0.23589253,0.13526714,0.05856073,-24.112078,-1.0786773,17.327448,-200.21414,0.0,0.0,0.0,0.0,1001.1,25.8,101.64828,9999999.0,101.64828,9999999.0,-4.122839,-4.094334,-218.94133,-5.1964145,-3.0621278,-1.4680505,1.241205,-0.4673606,-200.22937
22:22:19.993;-0.43216282,-0.73540145,8.100571,-0.23589253,-0.04783833,-0.0024744272,-24.110462,-1.0837418,17.321157,-200.20197,0.0,0.0,0.0,0.0,1001.16,25.9,101.1436,9999999.0,101.1436,9999999.0,-4.1310735,-4.112326,-219.02106,-5.179989,-3.0413327,-1.4833835,1.2380955,-0.46355414,-200.21414
22:22:20.058;-0.43000615,-0.7415501,8.08936,-0.052787066,0.07423198,-0.06350958,-24.109169,-1.0877935,17.316126,-200.19223,0.0,0.0,0.0,0.0,1001.1,25.8,101.64828,9999999.0,101.64828,9999999.0,-4.138255,-4.111073,-219.09912,-5.2303114,-3.030127,-1.4870259,1.2432176,-0.46372488,-200.20197
22:22:20.148;-0.42828083,-0.74646896,8.088053,-0.17485738,0.1963023,-0.06350958,-24.126535,-1.0726348,17.330502,-200.23001,0.0,0.0,0.0,0.0,1001.19995,25.8,100.80804,9999999.0,100.80804,9999999.0,-4.14856,-4.1097956,-219.18066,-5.2657137,-3.0183074,-1.5017139,1.259707,-0.46905968,-200.19223
22:22:20.210;-0.42690057,-0.74274266,8.094668,0.06928325,-0.16990864,-0.06350958,-24.122028,-1.0789078,17.3052,-200.21466,0.0,0.0,0.0,0.0,1001.16,25.8,101.1436,9999999.0,101.1436,9999999.0,-4.127758,-4.116485,-219.26549,-5.2353745,-3.0062902,-1.4970719,1.2483231,-0.47331482,-200.23001
22:22:20.255;-0.42579636,-0.75508446,8.092299,-0.17485738,0.013196826,-0.1855799,-24.118423,-1.0839263,17.28496,-200.2024,0.0,0.0,0.0,0.0,1001.1,25.8,101.64828,9999999.0,101.64828,9999999.0,-4.148679,-4.125077,-219.35124,-5.3234553,-2.9989784,-1.5052902,1.2489433,-0.47629976,-200.21466
22:22:20.332;-0.424913,-0.75729644,8.0904045,-0.052787066,0.1963023,-0.06350958,-24.11554,-1.087941,17.268768,-200.19257,0.0,0.0,0.0,0.0,1001.1,25.8,101.64828,9999999.0,101.64828,9999999.0,-4.153156,-4.115917,-219.44832,-5.3402305,-2.993386,-1.5091436,1.2632734,-0.4898471,-200.2024
22:22:20.413;-0.41654485,-0.75906605,8.088888,-0.23589253,-0.04783833,0.18063104,-24.113232,-1.0727528,17.255816,-200.22833,0.0,0.0,0.0,0.0,1001.06,25.8,101.98649,9999999.0,101.98649,9999999.0,-4.15501,-4.1335173,-219.54712,-5.3539176,-2.9350238,-1.5237689,1.2603074,-0.4937847,-200.19257
22:22:20.443;-0.4175118,-0.7528203,8.087675,-0.35796285,-0.04783833,0.05856073,-24.111385,-1.0606023,17.245453,-200.25696,0.0,0.0,0.0,0.0,1001.16,25.8,101.1436,9999999.0,101.1436,9999999.0,-4.175657,-4.1534777,-219.63527,-5.3108745,-2.9424717,-1.542741,1.257772,-0.48421127,-200.22833
22:22:20.492;-0.41062388,-0.7478237,8.086705,-0.052787066,-0.04783833,-0.06350958,-24.12831,-1.0508819,17.237162,-200.28174,0.0,0.0,0.0,0.0,1001.13995,25.9,101.312706,9999999.0,101.312706,9999999.0,-4.1783214,-4.154802,-219.7196,-5.276681,-2.8945193,-1.5451691,1.2555714,-0.48151746,-200.25696
22:22:20.535;-0.412775,-0.75148785,8.078268,0.06928325,0.013196826,0.18063104,-24.141848,-1.0615054,17.23053,-200.258,0.0,0.0,0.0,0.0,1001.13995,25.8,101.312706,9999999.0,101.312706,9999999.0,-4.1747384,-4.1488996,-219.80559,-5.307809,-2.9125433,-1.541982,1.2561784,-0.4844389,-200.28174
22:22:20.581;-0.41449592,-0.7390963,8.094502,-0.23589253,0.13526714,0.05856073,-24.134277,-1.0700043,17.206823,-200.23706,0.0,0.0,0.0,0.0,1001.06,25.8,101.98649,9999999.0,101.98649,9999999.0,-4.1807623,-4.1494346,-219.88126,-5.210332,-2.919267,-1.5528331,1.2624006,-0.47612986,-200.258
22:22:20.616;-0.40054974,-0.7521674,8.099829,-0.11382222,0.013196826,-0.0024744272,-24.128222,-1.0768034,17.187859,-200.2203,0.0,0.0,0.0,0.0,1001.19995,25.8,100.80804,9999999.0,100.80804,9999999.0,-4.1762176,-4.1486325,-219.95302,-5.298955,-2.8189547,-1.5567031,1.2628493,-0.4741388,-200.23706
22:22:20.687;-0.4047157,-0.7473014,8.111751,0.1303184,-0.10887349,-0.0024744272,-24.123377,-1.0638428,17.209486,-200.25052,0.0,0.0,0.0,0.0,1001.07996,25.8,101.81738,190.06802,103.71806,101.81738,-4.1617336,-4.142959,-220.0232,-5.257059,-2.844238,-1.5474505,1.2551193,-0.47431448,-200.2203
22:22:20.742;-0.40804845,-0.74340856,8.1136265,-0.17485738,0.1963023,-0.06350958,-24.119501,-1.0350742,17.22679,-200.31833,0.0,0.0,0.0,0.0,1001.1,25.8,101.64828,189.9989,103.71737,101.64828,-4.173924,-4.137399,-220.0927,-5.22852,-2.8670897,-1.5568929,1.2657197,-0.4744481,-200.25052
22:22:20.783;-0.40305322,-0.74795574,8.122789,-0.052787066,0.25733745,-0.06350958,-24.116402,-1.0304594,17.22223,-200.32895,0.0,0.0,0.0,0.0,1001.1,25.8,101.64828,192.55618,103.74294,101.64828,-4.1619678,-4.1244593,-220.16484,-5.2545967,-2.828742,-1.5591627,1.2767851,-0.47717902,-200.31833
22:22:20.814;-0.39905703,-0.7515935,8.114797,0.008248091,0.13526714,0.05856073,-24.113922,-1.0267675,17.218584,-200.33746,0.0,0.0,0.0,0.0,1001.16,25.8,101.1436,192.55618,103.74294,101.1436,-4.1474257,-4.1164346,-220.23776,-5.2852945,-2.8033566,-1.558907,1.2809784,-0.47921133,-200.32895
22:22:20.868;-0.40352154,-0.74684227,8.116064,0.008248091,-0.16990864,-0.0024744272,-24.111938,-1.060614,17.215668,-200.25699,0.0,0.0,0.0,0.0,1001.16,25.8,101.1436,190.06802,103.71806,101.1436,-4.138692,-4.1215973,-220.30634,-5.251116,-2.8343823,-1.5584617,1.2718034,-0.4761076,-200.33746
22:22:20.916;-0.40709314,-0.7430413,8.101755,-0.11382222,0.07423198,0.05856073,-24.091951,-1.0508912,17.231733,-200.27795,0.0,0.0,0.0,0.0,1001.1,25.8,101.64828,192.48708,103.742256,101.64828,-4.1491914,-4.120007,-220.37206,-5.2335777,-2.8645496,-1.5639251,1.2753665,-0.47622636,-200.25699
22:22:20.954;-0.41761187,-0.7400005,8.090307,-0.17485738,0.07423198,0.05856073,-24.075962,-1.043113,17.244587,-200.2948,0.0,0.0,0.0,0.0,1001.07996,25.8,101.81738,9999999.0,101.81738,9999999.0,-4.148504,-4.1216226,-220.4347,-5.2192516,-2.942654,-1.5705698,1.2781874,-0.47400105,-200.27795
22:22:20.997;-0.41070396,-0.7452293,8.081149,-0.052787066,0.1963023,0.18063104,-24.06317,-1.0552903,17.25487,-200.26453,0.0,0.0,0.0,0.0,1001.1,25.8,101.64828,9999999.0,101.64828,9999999.0,-4.146656,-4.113394,-220.49394,-5.2620606,-2.897138,-1.5728396,1.2866284,-0.47148293,-200.2948
22:22:21.033;-0.41283906,-0.7417509,8.081484,-0.17485738,-0.10887349,0.119595885,-24.052937,-1.0650322,17.263096,-200.2403,0.0,0.0,0.0,0.0,1001.07996,25.8,101.81738,9999999.0,101.81738,9999999.0,-4.1420417,-4.1212854,-220.54503,-5.2373514,-2.912168,-1.5791345,1.2827089,-0.4649802,-200.26453
22:22:21.085;-0.41454715,-0.7466296,8.089414,0.19135356,0.013196826,-0.12454474,-24.063148,-1.0544258,17.288076,-200.26657,0.0,0.0,0.0,0.0,1001.07996,25.8,101.81738,9999999.0,101.81738,9999999.0,-4.1346245,-4.109697,-220.58864,-5.2664237,-2.921198,-1.5693754,1.2833819,-0.4588808,-200.2403
22:22:21.125;-0.4159136,-0.74287117,8.0957575,-0.11382222,0.07423198,0.05856073,-24.07132,-1.0459406,17.289661,-200.2876,0.0,0.0,0.0,0.0,1001.1,25.8,101.64828,9999999.0,101.64828,9999999.0,-4.1366835,-4.1096134,-220.63678,-5.235944,-2.9286609,-1.5739282,1.2863512,-0.4638626,-200.26657
22:22:21.230;-0.4170068,-0.7475258,8.093171,-0.17485738,0.13526714,-0.06350958,-24.096256,-1.0575525,17.29093,-200.2626,0.0,0.0,0.0,0.0,1001.06,25.8,101.98649,9999999.0,101.98649,9999999.0,-4.14979,-4.112413,-220.67871,-5.2702003,-2.93712,-1.5912391,1.2997427,-0.4580651,-200.2876
22:22:21.331;-0.41788134,-0.7435881,8.083441,0.06928325,0.013196826,0.119595885,-24.097805,-1.048442,17.291945,-200.2844,0.0,0.0,0.0,0.0,1001.1,25.8,101.64828,9999999.0,101.64828,9999999.0,-4.128147,-4.10319,-220.7257,-5.2488236,-2.9469068,-1.5841029,1.3011019,-0.46460658,-200.2626
22:22:22.696;-0.4262424,-0.7404379,8.09864,0.06928325,0.07423198,-0.0024744272,-24.080645,-1.0227536,17.274355,-200.34363,0.0,0.0,0.0,0.0,1001.27997,25.8,100.136894,190.06802,103.71806,100.136894,-4.032576,-3.912412,-220.61185,-5.2167025,-3.0002842,-1.4893234,1.4026513,-0.3009994,-200.2844
22:22:22.715;-0.41760838,-0.74557924,8.103139,0.008248091,0.013196826,-0.06350958,-24.085316,-1.0390029,17.278685,-200.30551,0.0,0.0,0.0,0.0,1001.13995,25.8,101.312706,190.06802,103.71806,101.312706,-3.9389966,-3.918702,-220.50151,-5.2501206,-2.9378328,-1.4891502,1.4029285,-0.30105138,-200.34363
22:22:22.743;-0.41836262,-0.74203086,8.114399,0.008248091,0.07423198,-0.06350958,-24.089052,-1.0520023,17.282148,-200.27502,0.0,0.0,0.0,0.0,1001.13995,25.8,101.312706,190.06802,103.71806,101.312706,-3.9444625,-3.9223204,-220.39436,-5.218056,-2.9392033,-1.4889193,1.405007,-0.30282965,-200.30551
22:22:22.767;-0.418966,-0.7391921,8.115746,0.06928325,0.1963023,-0.12454474,-24.092041,-1.0624019,17.284918,-200.25064,0.0,0.0,0.0,0.0,1001.13995,25.8,101.312706,190.06802,103.71806,101.312706,-3.9462588,-3.9217699,-220.29018,-5.197328,-2.9430444,-1.4873258,1.4095219,-0.30429038,-200.27502
22:22:22.796;-0.42711014,-0.7445826,8.116823,0.1303184,0.37940776,0.119595885,-24.094433,-1.0707215,17.287134,-200.23117,0.0,0.0,0.0,0.0,1001.19995,25.8,100.80804,9999999.0,100.80804,9999999.0,-3.944184,-3.9141371,-220.19125,-5.2340584,-2.9995751,-1.4834162,1.4209042,-0.30802673,-200.25064
22:22:22.828;-0.41830257,-0.73357207,8.117685,0.008248091,0.013196826,-0.06350958,-24.096346,-1.0589772,17.288908,-200.25925,0.0,0.0,0.0,0.0,1001.13995,25.8,101.312706,9999999.0,101.312706,9999999.0,-3.938724,-3.9182804,-220.09006,-5.156826,-2.9378798,-1.483144,1.4213396,-0.30408007,-200.23117
22:22:22.855;-0.4265794,-0.74008656,8.118375,-0.052787066,0.013196826,-0.0024744272,-24.097878,-1.0495818,17.290327,-200.28168,0.0,0.0,0.0,0.0,1001.16,25.8,101.1436,9999999.0,101.1436,9999999.0,-3.945293,-3.9259596,-219.99306,-5.2016587,-2.9954379,-1.4845165,1.4216827,-0.30573133,-200.25925
22:22:22.887;-0.4255394,-0.7529596,8.118926,-0.11382222,-0.10887349,-0.0024744272,-24.099102,-1.0420654,17.291462,-200.29965,0.0,0.0,0.0,0.0,1001.22,25.8,100.64157,192.48708,103.742256,100.64157,-3.9567246,-3.940648,-219.89851,-5.291306,-2.9875164,-1.488045,1.4183077,-0.30580804,-200.28168
22:22:22.909;-0.41704598,-0.7479352,8.127028,0.06928325,-0.2309438,-0.0024744272,-24.100082,-1.0360523,17.32917,-200.31403,0.0,0.0,0.0,0.0,1001.1,25.8,101.64828,190.06802,103.71806,101.64828,-3.9652312,-3.949864,-219.80627,-5.2512817,-2.925269,-1.4863821,1.412765,-0.30586743,-200.29965
22:22:22.936;-0.4179127,-0.7439156,8.125849,-0.23589253,-0.16990864,-0.06350958,-24.100866,-1.0312419,17.359337,-200.32553,0.0,0.0,0.0,0.0,1001.13995,25.8,101.312706,190.06802,103.71806,101.312706,-3.981356,-3.964696,-219.71625,-5.2239404,-2.9318907,-1.4925153,1.4083474,-0.30593178,-200.31403
22:22:22.963;-0.41860604,-0.7253771,8.117244,0.06928325,-0.16990864,-0.0024744272,-24.101494,-1.0457935,17.38347,-200.29105,0.0,0.0,0.0,0.0,1001.19995,25.8,100.80804,189.9989,103.71737,100.80804,-3.9854965,-3.9692576,-219.62997,-5.099788,-2.94043,-1.4905754,1.40359,-0.30771005,-200.32553
22:22:22.993;-0.41916072,-0.7335306,8.118021,-0.052787066,0.07423198,0.18063104,-24.101995,-1.0574348,17.402777,-200.26349,0.0,0.0,0.0,0.0,1001.13995,25.8,101.312706,189.9989,103.71737,101.312706,-3.9944985,-3.9713745,-219.54482,-5.1562963,-2.943777,-1.4921062,1.4057426,-0.30778182,-200.29105
22:22:23.038;-0.41960448,-0.73239195,8.126305,-0.052787066,0.13526714,-0.06350958,-24.102396,-1.0483478,17.381422,-200.2851,0.0,0.0,0.0,0.0,1001.07996,25.8,101.81738,190.06802,103.71806,101.81738,-3.997189,-3.9700265,-219.45267,-5.143115,-2.9439507,-1.4945344,1.4119649,-0.29947278,-200.26349
22:22:23.047;-0.41229802,-0.731481,8.109947,0.008248091,-0.10887349,0.119595885,-24.102716,-1.0410783,17.364338,-200.30237,0.0,0.0,0.0,0.0,1001.13995,25.8,101.312706,190.06802,103.71806,101.312706,-3.9934988,-3.972561,-219.36336,-5.147266,-2.898583,-1.4944601,1.410985,-0.30004436,-200.2851
22:22:23.072;-0.41411433,-0.7230908,8.104523,-0.11382222,-0.10887349,0.05856073,-24.102974,-1.0352627,17.35067,-200.3162,0.0,0.0,0.0,0.0,1001.19995,25.8,100.80804,190.06802,103.71806,100.80804,-3.9977355,-3.9787188,-219.27325,-5.0918593,-2.9135277,-1.4973056,1.4082632,-0.29705447,-200.30237
