15:10:17.820;X[m/s²],Y[m/s²],Z[m/s²],X[°/s],Y[°/s],Z[°/s],X[µT],Y[µT],Z[µT],Direção[°],R1[µsec],R2[µsec],R3[µsec],R4[µsec],R1[RPM],R2[RPM],R3[RPM],R4[RPM],Baro[hPa],Baro[°C],Baro[m],Down[cm],Abs[m],Rel[m],X [°],Y [°],Z [°],Acce X[°],Acce Y[°],Gyro X[°],Gyro Y[°],Gyro Z[°],Mag Z[°]
15:10:17.822;-0.15322891,-0.49799395,8.00621,-0.06273329,-0.06363237,0.107885376,11.04,-22.217997,9.936001,244.92287,1000,1000,1000,1000,0.0,0.0,0.0,0.0,1010.86,25.9,19.917461,53.702854,19.917461,0.53702855,-0.07117227,0.021886414,0.0,-3.5586169,1.0943217,0.0,0.0,0.0,0.0
15:10:17.836;-0.11492168,-0.5363012,7.967903,-0.0016981363,0.18050826,0.107885376,12.328,-22.586,8.740001,246.9223,1000,1000,1000,1000,0.0,0.0,0.0,0.0,1010.68,25.9,21.418272,53.771976,20.455181,0.5377198,-0.14678682,0.041475814,-0.037874117,-3.8502398,0.824459,-3.3962726E-5,0.003610165,0.0021577075,-1.9994354
15:10:17.849;-0.11492168,-0.5363012,7.967903,-0.0016981363,0.18050826,0.107885376,12.328,-22.586,8.740001,246.9223,1000,1000,1000,1000,0.0,0.0,0.0,0.0,1010.68,25.9,21.418272,53.771976,20.455181,0.5377198,-0.22087744,0.059435137,-0.075730845,-3.8502398,0.824459,-5.6038498E-5,0.0059567727,0.0035602173,-1.9994354
15:10:17.863;-0.15322891,-0.49799395,8.00621,-0.12376845,-0.06363237,0.04685022,12.328,-22.586,8.740001,246.9223,1000,1000,1000,1000,0.0,0.0,0.0,0.0,1010.77997,25.9,20.583313,53.771976,20.455181,0.5377198,-0.28933024,0.07925981,-0.11272471,-3.5586169,1.0943217,-0.0017887969,0.0050659194,0.0050706128,-1.9994354
15:10:17.878;-0.15322891,-0.49799395,8.00621,-0.12376845,-0.06363237,0.04685022,12.328,-22.586,8.740001,246.9223,1000,1000,1000,1000,0.0,0.0,0.0,0.0,1010.77997,25.9,20.583313,53.771976,20.455181,0.5377198,-0.35653532,0.09862564,-0.14977019,-3.5586169,1.0943217,-0.0036453237,0.004111434,0.005773366,-1.9994354
15:10:17.891;-0.15322891,-0.45968673,8.00621,-0.1848036,-0.124667525,-0.014184937,12.328,-22.586,8.740001,246.9223,1000,1000,1000,1000,0.0,0.0,0.0,0.0,1010.77997,25.9,20.583313,53.771976,20.455181,0.5377198,-0.417469,0.116957515,-0.18616658,-3.2855017,1.0946337,-0.0060477704,0.002490756,0.006382419,-1.9994354
15:10:17.905;-0.15322891,-0.45968673,8.00621,-0.1848036,-0.124667525,-0.014184937,12.328,-22.586,8.740001,246.9223,1000,1000,1000,1000,0.0,0.0,0.0,0.0,1010.77997,25.9,20.583313,53.771976,20.455181,0.5377198,-0.477184,0.13492276,-0.22261263,-3.2855017,1.0946337,-0.008450218,8.700782E-4,0.0061980146,-1.9994354
15:10:17.919;-0.076614454,-0.5363012,8.00621,-0.06273329,-0.06363237,-0.014184937,12.236,-22.401999,8.648,246.77596,1000,1000,1000,1000,0.0,0.0,0.0,0.0,1010.77997,25.9,20.583313,53.771976,20.455181,0.5377198,-0.54520434,0.14222975,-0.25543064,-3.832095,0.54704237,-0.009391217,-8.440728E-5,0.0059852405,-1.8530884
15:10:17.934;-0.076614454,-0.5363012,8.00621,-0.06273329,-0.06363237,-0.014184937,12.236,-22.401999,8.648,246.77596,1000,1000,1000,1000,0.0,0.0,0.0,0.0,1010.77997,25.9,20.583313,53.702854,20.45449,0.53702855,-0.6118642,0.14939061,-0.2875923,-3.832095,0.54704237,-0.010332216,-0.0010388928,0.0057724663,-1.8530884
15:10:17.948;-0.11492168,-0.5746084,8.00621,-0.06273329,0.1194731,0.04685022,12.236,-22.401999,8.648,246.77596,1000,1000,1000,1000,0.0,0.0,0.0,0.0,1010.74,25.9,20.918882,53.702854,20.45449,0.53702855,-0.6825811,0.16444719,-0.3190968,-4.104677,0.8202614,-0.011210482,6.3373067E-4,0.005573877,-1.8530884
15:10:17.962;-0.11492168,-0.5746084,8.00621,-0.06273329,0.1194731,0.04685022,12.236,-22.401999,8.648,246.77596,1000,1000,1000,1000,0.0,0.0,0.0,0.0,1010.74,25.9,20.918882,53.771976,20.455181,0.5377198,-0.7518837,0.17920263,-0.34913382,-4.104677,0.8202614,-0.012088748,0.0023063542,0.00622978,-1.8530884
15:10:17.976;-0.15322891,-0.49799395,8.00621,-0.1848036,-0.0025972128,-0.014184937,12.236,-22.401999,8.832,246.77596,1000,1000,1000,1000,0.0,0.0,0.0,0.0,1010.74,25.9,20.918882,53.771976,20.455181,0.5377198,-0.8105538,0.19746935,-0.3785701,-3.5586169,1.0943217,-0.014675998,0.0022699933,0.006885683,-1.8530884
15:10:17.990;-0.15322891,-0.49799395,8.00621,-0.1848036,-0.0025972128,-0.014184937,12.236,-22.401999,8.832,246.77596,1000,1000,1000,1000,0.0,0.0,0.0,0.0,1010.72,25.9,21.085346,53.771976,20.455181,0.5377198,-0.86805046,0.21537074,-0.40825507,-3.5586169,1.0943217,-0.017263249,0.0022336324,0.006687094,-1.8530884
15:10:18.006;-0.15322891,-0.49799395,7.967903,-0.0016981363,0.058437943,-0.014184937,12.236,-22.401999,8.832,246.77596,1000,1000,1000,1000,0.0,0.0,0.0,0.0,1010.72,25.9,21.085346,53.771976,20.455181,0.5377198,-0.9222295,0.23397085,-0.43737411,-3.575675,1.0995612,-0.017290419,0.0031686395,0.006460135,-1.8530884
15:10:18.019;-0.15322891,-0.49799395,7.967903,-0.0016981363,0.058437943,-0.014184937,12.236,-22.401999,8.832,246.77596,1000,1000,1000,1000,0.0,0.0,0.0,0.0,1010.72,25.9,21.085346,53.771976,20.455181,0.5377198,-0.97532,0.25202712,-0.4658691,-3.575675,1.0995612,-0.017312495,0.0039283326,0.0062757307,-1.8530884
15:10:18.032;-0.11492168,-0.5363012,7.967903,-0.1848036,-0.124667525,0.04685022,12.328,-22.31,8.648,246.91597,1000,1000,1000,1000,0.0,0.0,0.0,0.0,1010.86,25.9,19.917461,53.771976,20.455181,0.5377198,-1.0351727,0.2618875,-0.4965945,-3.8502398,0.824459,-0.019714942,0.0023076548,0.0060913265,-1.993103
15:10:18.048;-0.11492168,-0.5363012,7.967903,-0.1848036,-0.124667525,0.04685022,12.328,-22.31,8.648,246.91597,1000,1000,1000,1000,0.0,0.0,0.0,0.0,1010.86,25.9,19.917461,53.771976,20.455181,0.5377198,-1.0943717,0.27118415,-0.52579,-3.8502398,0.824459,-0.0226718,3.129742E-4,0.00684093,-1.993103
15:10:18.060;-0.15322891,-0.49799395,8.0445175,-0.0016981363,0.18050826,0.04685022,12.328,-22.31,8.648,246.91597,1000,1000,1000,1000,0.0,0.0,0.0,0.0,1010.86,25.9,19.917461,53.771976,20.455181,0.5377198,-1.1433387,0.28966585,-0.5545853,-3.5417204,1.0891318,-0.022692177,0.0024790734,0.0074031325,-1.993103
15:10:18.075;-0.15322891,-0.49799395,8.0445175,-0.0016981363,0.18050826,0.04685022,12.328,-22.31,8.648,246.91597,1000,1000,1000,1000,0.0,0.0,0.0,0.0,1010.68,25.9,21.418272,53.771976,20.455181,0.5377198,-1.1913314,0.30830863,-0.58266693,-3.5417204,1.0891318,-0.02271765,0.0051866975,0.008105886,-1.993103
15:10:18.089;-0.11492168,-0.49799395,7.967903,0.05933702,-0.124667525,-0.13625525,12.328,-22.31,8.648,246.91597,1000,1000,1000,1000,0.0,0.0,0.0,0.0,1010.68,25.9,21.418272,53.771976,20.455181,0.5377198,-1.2382098,0.3169263,-0.6102329,-3.5759635,0.8247152,-0.02188693,0.003441352,0.00876179,-1.993103
15:10:18.104;-0.11492168,-0.49799395,7.967903,0.05933702,-0.124667525,-0.13625525,12.328,-22.31,8.648,246.91597,1000,1000,1000,1000,0.0,0.0,0.0,0.0,1010.68,25.9,21.418272,53.771976,20.455181,0.5377198,-1.2840927,0.3252495,-0.63989323,-3.5759635,0.8247152,-0.020996874,0.0015713391,0.0067179613,-1.993103
15:10:18.121;-0.15322891,-0.45968673,8.00621,-0.30687392,-0.0025972128,-0.07522009,12.328,-22.494001,8.740001,246.9202,1000,1000,1000,1000,0.0,0.0,0.0,0.0,1010.72,25.9,21.085346,53.771976,20.455181,0.5377198,-1.3292333,0.3405939,-0.66931194,-3.2855017,1.0946337,-0.026213732,0.0015271865,0.004401622,-1.9973297
15:10:18.132;-0.15322891,-0.45968673,8.00621,-0.30687392,-0.0025972128,-0.07522009,12.328,-22.494001,8.740001,246.9202,1000,1000,1000,1000,0.0,0.0,0.0,0.0,1010.72,25.9,21.085346,53.771976,20.455181,0.5377198,-1.3716668,0.3556467,-0.69668317,-3.2855017,1.0946337,-0.029589344,0.0014986171,0.003574201,-1.9973297
15:10:18.146;-0.11492168,-0.49799395,7.967903,-0.06273329,0.058437943,0.16892053,12.328,-22.494001,8.740001,246.9202,1000,1000,1000,1000,0.0,0.0,0.0,0.0,1010.72,25.9,21.085346,53.771976,20.455181,0.5377198,-1.4166133,0.36582983,-0.7237281,-3.5759635,0.8247152,-0.03046761,0.0023167483,0.0025211195,-1.9973297
15:10:18.160;-0.11492168,-0.49799395,7.967903,-0.06273329,0.058437943,0.16892053,12.328,-22.494001,8.740001,246.9202,1000,1000,1000,1000,0.0,0.0,0.0,0.0,1010.74,25.9,20.918882,53.771976,20.455181,0.5377198,-1.460661,0.3758093,-0.74688256,-3.5759635,0.8247152,-0.031345878,0.0031348795,0.004886007,-1.9973297
15:10:18.175;-0.11492168,-0.49799395,7.967903,0.120372176,0.24154341,-0.07522009,12.236,-22.31,8.740001,246.77347,1000,1000,1000,1000,0.0,0.0,0.0,0.0,1010.74,25.9,20.918882,53.702854,20.45449,0.53702855,-1.5013156,0.3881014,-0.76663935,-3.5759635,0.8247152,-0.029660668,0.0065164873,0.007250895,-1.8506012
15:10:18.189;-0.11492168,-0.49799395,7.967903,0.120372176,0.24154341,-0.07522009,12.236,-22.31,8.740001,246.77347,1000,1000,1000,1000,0.0,0.0,0.0,0.0,1010.74,25.9,20.918882,53.702854,20.45449,0.53702855,-1.541157,0.40014762,-0.78935057,-3.5759635,0.8247152,-0.027975459,0.009898095,0.0061978134,-1.8506012
15:10:18.203;-0.15322891,-0.45968673,7.967903,-0.1848036,0.1194731,-0.13625525,12.236,-22.31,8.740001,246.77347,1000,1000,1000,1000,0.0,0.0,0.0,0.0,1010.72,25.9,21.085346,53.702854,20.45449,0.53702855,-1.5788944,0.41578138,-0.8116076,-3.3012567,1.0998777,-0.03056271,0.011570719,0.005144732,-1.8506012
15:10:18.217;-0.15322891,-0.45968673,7.967903,-0.1848036,0.1194731,-0.13625525,12.236,-22.31,8.740001,246.77347,1000,1000,1000,1000,0.0,0.0,0.0,0.0,1010.72,25.9,21.085346,53.702854,20.45449,0.53702855,-1.6160582,0.43121955,-0.8343904,-3.3012567,1.0998777,-0.033334766,0.013362816,0.0031009035,-1.8506012
15:10:18.238;-0.11492168,-0.49799395,8.00621,-0.06273329,0.058437943,0.04685022,12.236,-22.401999,8.832,246.77596,1000,1000,1000,1000,0.0,0.0,0.0,0.0,1010.72,25.9,21.085346,53.702854,20.45449,0.53702855,-1.6562061,0.4402135,-0.8575685,-3.558901,0.8207849,-0.034652166,0.014590012,2.3954338E-4,-1.8530884
15:10:18.245;-0.11492168,-0.49799395,8.00621,-0.06273329,0.058437943,0.04685022,12.236,-22.401999,8.832,246.77596,1000,1000,1000,1000,0.0,0.0,0.0,0.0,1010.77997,25.9,20.583313,53.702854,20.45449,0.53702855,-1.6946903,0.4482258,-0.8771575,-3.558901,0.8207849,-0.0350913,0.014999078,5.674949E-4,-1.8530884
15:10:18.261;-0.11492168,-0.49799395,8.00621,-0.30687392,0.18050826,-0.1972904,12.236,-22.401999,8.832,246.77596,1000,1000,1000,1000,0.0,0.0,0.0,0.0,1010.77997,25.9,20.583313,53.702854,20.45449,0.53702855,-1.7367864,0.45850736,-0.89594156,-3.558901,0.8207849,-0.04000128,0.01788721,0.0013170985,-1.8530884
15:10:18.275;-0.11492168,-0.49799395,8.00621,-0.30687392,0.18050826,-0.1972904,12.236,-22.401999,8.832,246.77596,1000,1000,1000,1000,0.0,0.0,0.0,0.0,1010.77997,25.9,20.583313,53.771976,20.455181,0.5377198,-1.7774389,0.46822947,-0.9177913,-3.558901,0.8207849,-0.044297516,0.020414326,-0.0014449672,-1.8530884
15:10:18.289;-0.15322891,-0.49799395,8.00621,0.05933702,0.1194731,0.04685022,12.144,-22.31,8.832,246.631,1000,1000,1000,1000,0.0,0.0,0.0,0.0,1010.72,25.9,21.085346,53.771976,20.455181,0.5377198,-1.8122482,0.48239046,-0.9363049,-3.5586169,1.0943217,-0.0434668,0.02208695,-0.0042070327,-1.7081299
15:10:18.304;-0.15322891,-0.49799395,8.00621,0.05933702,0.1194731,0.04685022,12.144,-22.31,8.832,246.631,1000,1000,1000,1000,0.0,0.0,0.0,0.0,1010.72,25.9,21.085346,53.771976,20.455181,0.5377198,-1.8463033,0.49638534,-0.9510527,-3.5586169,1.0943217,-0.042576745,0.023879046,-0.0035042795,-1.7081299
15:10:18.318;-0.11492168,-0.49799395,8.00621,-0.0016981363,0.058437943,-0.014184937,12.144,-22.31,8.832,246.631,1000,1000,1000,1000,0.0,0.0,0.0,0.0,1010.72,25.9,21.085346,53.702854,20.45449,0.53702855,-1.8805785,0.5036751,-0.9655515,-3.558901,0.8207849,-0.04260052,0.024697177,-0.0028483765,-1.7081299
15:10:18.331;-0.11492168,-0.49799395,8.00621,-0.0016981363,0.058437943,-0.014184937,12.144,-22.31,8.832,246.631,1000,1000,1000,1000,0.0,0.0,0.0,0.0,1010.74,25.9,20.918882,53.702854,20.45449,0.53702855,-1.9141666,0.5107618,-0.9805838,-3.558901,0.8207849,-0.042622596,0.02545687,-0.0030327807,-1.7081299
15:10:18.347;-0.076614454,-0.45968673,8.00621,-0.12376845,-0.0025972128,-0.13625525,12.144,-22.31,8.832,246.631,1000,1000,1000,1000,0.0,0.0,0.0,0.0,1010.74,25.9,20.918882,53.702854,20.45449,0.53702855,-1.9434217,0.5114557,-0.99534327,-3.2859519,0.5473668,-0.044479124,0.02541791,-0.0032455549,-1.7081299
15:10:18.360;-0.076614454,-0.45968673,8.00621,-0.12376845,-0.0025972128,-0.13625525,12.144,-22.31,8.832,246.631,1000,1000,1000,1000,0.0,0.0,0.0,0.0,1010.74,25.9,20.918882,53.771976,20.455181,0.5377198,-1.9719704,0.5121383,-1.0114684,-3.2859519,0.5473668,-0.046211883,0.02538155,-0.0051531284,-1.7081299
15:10:18.374;-0.15322891,-0.49799395,8.082825,0.05933702,0.1194731,0.04685022,12.236,-22.31,8.740001,246.77347,1000,1000,1000,1000,0.0,0.0,0.0,0.0,1010.77997,25.9,20.583313,53.771976,20.455181,0.5377198,-2.0022166,0.52521455,-1.0301205,-3.5249834,1.0839909,-0.045381166,0.027054174,-0.007060702,-1.8506012
15:10:18.388;-0.15322891,-0.49799395,8.082825,0.05933702,0.1194731,0.04685022,12.236,-22.31,8.740001,246.77347,1000,1000,1000,1000,0.0,0.0,0.0,0.0,1010.77997,25.9,20.583313,53.771976,20.455181,0.5377198,-2.0318577,0.53802925,-1.0458874,-3.5249834,1.0839909,-0.04455045,0.028726798,-0.006404799,-1.8506012
15:10:18.402;-0.11492168,-0.49799395,8.00621,-0.12376845,-0.06363237,-0.07522009,12.236,-22.31,8.740001,246.77347,1000,1000,1000,1000,0.0,0.0,0.0,0.0,1010.77997,25.9,20.583313,53.771976,20.455181,0.5377198,-2.0640967,0.5428113,-1.0613388,-3.558901,0.8207849,-0.046283208,0.027835945,-0.005748896,-1.8506012
15:10:18.416;-0.11492168,-0.49799395,8.00621,-0.12376845,-0.06363237,-0.07522009,12.236,-22.31,8.740001,246.77347,1000,1000,1000,1000,0.0,0.0,0.0,0.0,1010.77997,25.9,20.583313,53.702854,20.45449,0.53702855,-2.095691,0.5474977,-1.078156,-3.558901,0.8207849,-0.048015967,0.026945092,-0.0068019773,-1.8506012
15:10:18.432;-0.15322891,-0.45968673,8.00621,-0.06273329,-0.0025972128,0.04685022,12.328,-22.401999,8.832,246.91809,1000,1000,1000,1000,0.0,0.0,0.0,0.0,1010.77997,25.9,20.583313,53.702854,20.45449,0.53702855,-2.120471,0.5583997,-1.0976769,-3.2855017,1.0946337,-0.049019698,0.026903536,-0.008005499,-1.995224
15:10:18.447;-0.15322891,-0.45968673,8.00621,-0.06273329,-0.0025972128,0.04685022,12.328,-22.401999,8.832,246.91809,1000,1000,1000,1000,0.0,0.0,0.0,0.0,1010.77997,25.9,20.583313,53.702854,20.45449,0.53702855,-2.1446323,0.56908876,-1.1149851,-3.2855017,1.0946337,-0.049897965,0.026867175,-0.007349596,-1.995224
15:10:18.461;-0.15322891,-0.45968673,7.929596,0.05933702,0.058437943,0.107885376,12.328,-22.401999,8.832,246.91809,1000,1000,1000,1000,0.0,0.0,0.0,0.0,1010.77997,25.9,20.583313,53.771976,20.455181,0.5377198,-2.167269,0.5806122,-1.1319472,-3.3171632,1.105172,-0.049067248,0.027685307,-0.006693693,-1.995224
15:10:18.476;-0.15322891,-0.45968673,7.929596,0.05933702,0.058437943,0.107885376,12.328,-22.401999,8.832,246.91809,1000,1000,1000,1000,0.0,0.0,0.0,0.0,1010.77997,25.9,20.583313,53.771976,20.455181,0.5377198,-2.1893365,0.5920197,-1.1475211,-3.3171632,1.105172,-0.048117854,0.028620314,-0.0049675265,-1.995224
15:10:18.490;-0.15322891,-0.5363012,8.0445175,-0.0016981363,0.058437943,0.107885376,12.236,-22.401999,8.648,246.77596,1000,1000,1000,1000,0.0,0.0,0.0,0.0,1010.77997,25.9,20.583313,53.771976,20.455181,0.5377198,-2.2218409,0.60275704,-1.1601522,-3.8133852,1.0888,-0.04814163,0.029438445,-0.0034571313,-1.8530884
15:10:18.503;-0.15322891,-0.5363012,8.0445175,-0.0016981363,0.058437943,0.107885376,12.236,-22.401999,8.648,246.77596,1000,1000,1000,1000,0.0,0.0,0.0,0.0,1010.77997,25.9,20.583313,53.771976,20.455181,0.5377198,-2.2536936,0.6132224,-1.1726364,-3.8133852,1.0888,-0.048163705,0.030198138,-0.0020546215,-1.8530884
15:10:18.517;-0.15322891,-0.49799395,8.00621,-0.12376845,0.058437943,-0.014184937,12.236,-22.401999,8.648,246.77596,1000,1000,1000,1000,0.0,0.0,0.0,0.0,1010.77997,25.9,20.583313,53.771976,20.455181,0.5377198,-2.28149,0.62364614,-1.1847652,-3.5586169,1.0943217,-0.049896464,0.03101627,-5.4422615E-4,-1.8530884
15:10:18.538;-0.15322891,-0.49799395,8.00621,-0.12376845,0.058437943,-0.014184937,12.236,-22.401999,8.648,246.77596,1000,1000,1000,1000,0.0,0.0,0.0,0.0,1010.77997,25.9,20.583313,53.771976,20.455181,0.5377198,-2.3095798,0.63426226,-1.1984236,-3.5586169,1.0943217,-0.052495603,0.032243468,-8.421098E-4,-1.8530884
15:10:18.546;-0.11492168,-0.49799395,8.082825,-0.0016981363,-0.0025972128,-0.014184937,12.236,-22.401999,8.648,246.77596,1000,1000,1000,1000,0.0,0.0,0.0,0.0,1010.77997,25.9,20.583313,53.771976,20.455181,0.5377198,-2.3339067,0.6378173,-1.2116281,-3.5252597,0.8130356,-0.05250919,0.032222692,-9.555893E-4,-1.8530884
15:10:18.565;-0.11492168,-0.49799395,8.082825,-0.0016981363,-0.0025972128,-0.014184937,12.236,-22.401999,8.648,246.77596,1000,1000,1000,1000,0.0,0.0,0.0,0.0,1010.77997,25.9,20.583313,53.702854,20.45449,0.53702855,-2.3577635,0.6412759,-1.2247075,-3.5252597,0.8130356,-0.052539755,0.032175943,-0.0012109182,-1.8530884
15:10:18.574;-0.15322891,-0.5363012,8.00621,-0.12376845,-0.06363237,-0.014184937,12.144,-22.31,8.832,246.631,1000,1000,1000,1000,0.0,0.0,0.0,0.0,1010.77997,25.9,20.583313,53.702854,20.45449,0.53702855,-2.3884525,0.6497064,-1.234515,-3.8315704,1.0939851,-0.053777438,0.03153962,-0.0013527676,-1.7081299
15:10:18.588;-0.15322891,-0.5363012,8.00621,-0.12376845,-0.06363237,-0.014184937,12.144,-22.31,8.832,246.631,1000,1000,1000,1000,0.0,0.0,0.0,0.0,1010.86,25.9,19.917461,53.702854,20.45449,0.53702855,-2.419013,0.65771896,-1.2441819,-3.8315704,1.0939851,-0.055510197,0.030648766,-0.0015513567,-1.7081299
15:10:18.602;-0.15322891,-0.5363012,8.00621,-0.12376845,0.1194731,0.16892053,12.144,-22.31,8.832,246.631,1000,1000,1000,1000,0.0,0.0,0.0,0.0,1010.86,25.9,19.917461,53.771976,20.455181,0.5377198,-2.448841,0.66796637,-1.2536415,-3.8315704,1.0939851,-0.057119187,0.032201916,-0.001735761,-1.7081299
15:10:18.616;-0.15322891,-0.5363012,8.00621,-0.12376845,0.1194731,0.16892053,12.144,-22.31,8.832,246.631,1000,1000,1000,1000,0.0,0.0,0.0,0.0,1010.86,25.9,19.917461,53.771976,20.455181,0.5377198,-2.478315,0.678243,-1.2602481,-3.8315704,1.0939851,-0.058975715,0.03399401,7.9804694E-4,-1.7081299
15:10:18.631;-0.11492168,-0.49799395,8.082825,0.05933702,0.1194731,-0.014184937,12.236,-22.31,8.740001,246.77347,1000,1000,1000,1000,0.0,0.0,0.0,0.0,1010.8,25.9,20.416851,53.771976,20.455181,0.5377198,-2.49844,0.68257797,-1.2697375,-3.5252597,0.8130356,-0.058144998,0.035666633,0.0031629344,-1.8506012
15:10:18.645;-0.11492168,-0.49799395,8.082825,0.05933702,0.1194731,-0.014184937,12.236,-22.31,8.740001,246.77347,1000,1000,1000,1000,0.0,0.0,0.0,0.0,1010.8,25.9,20.416851,53.771976,20.455181,0.5377198,-2.5181043,0.68694335,-1.2815633,-3.5252597,0.8130356,-0.057254944,0.03745873,0.0029501603,-1.8506012
15:10:18.658;-0.11492168,-0.45968673,8.00621,-0.06273329,0.1194731,0.16892053,12.236,-22.31,8.740001,246.77347,1000,1000,1000,1000,0.0,0.0,0.0,0.0,1010.8,25.9,20.416851,53.702854,20.45449,0.53702855,-2.534257,0.69114697,-1.2931248,-3.2857642,0.821019,-0.058070477,0.03901188,0.002765756,-1.8506012
15:10:18.672;-0.11492168,-0.45968673,8.00621,-0.06273329,0.1194731,0.16892053,12.236,-22.31,8.740001,246.77347,1000,1000,1000,1000,0.0,0.0,0.0,0.0,1010.8,25.9,20.416851,53.702854,20.45449,0.53702855,-2.550148,0.6953836,-1.3019568,-3.2857642,0.821019,-0.058948744,0.040684503,0.005130644,-1.8506012
15:10:18.689;-0.076614454,-0.49799395,7.967903,-0.24583876,0.24154341,-0.014184937,12.236,-22.401999,8.740001,246.77596,1000,1000,1000,1000,0.0,0.0,0.0,0.0,1010.8,25.9,20.416851,53.702854,20.45449,0.53702855,-2.5745232,0.69626,-1.3103307,-3.5761695,0.5498312,-0.06288216,0.044549197,0.007833373,-1.8530884
15:10:18.704;-0.076614454,-0.49799395,7.967903,-0.24583876,0.24154341,-0.014184937,12.236,-22.401999,8.740001,246.77596,1000,1000,1000,1000,0.0,0.0,0.0,0.0,1010.8,25.9,20.416851,53.702854,20.45449,0.53702855,-2.598411,0.6971188,-1.3214083,-3.5761695,0.5498312,-0.066815585,0.04841389,0.0076064137,-1.8530884
15:10:18.715;-0.15322891,-0.49799395,8.00621,0.18140733,0.058437943,-0.07522009,12.236,-22.401999,8.740001,246.77596,1000,1000,1000,1000,0.0,0.0,0.0,0.0,1010.72,25.9,21.085346,53.702854,20.45449,0.53702855,-2.6156595,0.7056928,-1.3321948,-3.5586169,1.0943217,-0.0648201,0.04905671,0.0074503794,-1.8530884
15:10:18.731;-0.15322891,-0.49799395,8.00621,0.18140733,0.058437943,-0.07522009,12.236,-22.401999,8.740001,246.77596,1000,1000,1000,1000,0.0,0.0,0.0,0.0,1010.72,25.9,21.085346,53.702854,20.45449,0.53702855,-2.631852,0.7143244,-1.3437184,-3.5586169,1.0943217,-0.062098995,0.049933277,0.006322078,-1.8530884
15:10:18.747;-0.11492168,-0.5363012,8.0445175,0.05933702,0.18050826,-0.014184937,12.236,-22.401999,8.740001,246.77596,1000,1000,1000,1000,0.0,0.0,0.0,0.0,1010.72,25.9,21.085346,53.702854,20.45449,0.53702855,-2.6545,0.71937805,-1.3551589,-3.813687,0.816643,-0.061090264,0.053001918,0.005043336,-1.8530884
15:10:18.761;-0.11492168,-0.5363012,8.0445175,0.05933702,0.18050826,-0.014184937,12.236,-22.401999,8.740001,246.77596,1000,1000,1000,1000,0.0,0.0,0.0,0.0,1010.77997,25.9,20.583313,53.702854,20.45449,0.53702855,-2.6768696,0.72379994,-1.3653121,-3.813687,0.816643,-0.060259547,0.055529032,0.004844747,-1.8530884
15:10:18.776;-0.11492168,-0.49799395,8.00621,-0.06273329,0.1194731,-0.014184937,12.236,-22.31,8.832,246.77347,1000,1000,1000,1000,0.0,0.0,0.0,0.0,1010.77997,25.9,20.583313,53.702854,20.45449,0.53702855,-2.695371,0.7273788,-1.3752126,-3.558901,0.8207849,-0.061137814,0.057201654,0.004646158,-1.8506012
15:10:18.794;-0.11492168,-0.49799395,8.00621,-0.06273329,0.1194731,-0.014184937,12.236,-22.31,8.832,246.77347,1000,1000,1000,1000,0.0,0.0,0.0,0.0,1010.77997,25.9,20.583313,53.702854,20.45449,0.53702855,-2.7138095,0.7314715,-1.3849845,-3.558901,0.8207849,-0.062329747,0.059471644,0.0043766443,-1.8506012
15:10:18.810;-0.11492168,-0.49799395,8.00621,-0.06273329,0.1194731,-0.014184937,12.236,-22.31,8.832,246.77347,1000,1000,1000,1000,0.0,0.0,0.0,0.0,1010.74,25.9,20.918882,53.702854,20.45449,0.53702855,-2.7316334,0.73501396,-1.3945054,-3.558901,0.8207849,-0.06327075,0.06126374,0.00416387,-1.8506012
15:10:18.820;-0.15322891,-0.45968673,8.0445175,-0.0016981363,0.1194731,-0.07522009,12.236,-22.31,8.832,246.77347,1000,1000,1000,1000,0.0,0.0,0.0,0.0,1010.74,25.9,20.918882,53.702854,20.45449,0.53702855,-2.742417,0.7433904,-1.4037802,-3.2698963,1.0894395,-0.063289426,0.06257794,0.004007836,-1.8506012
15:10:18.835;-0.15322891,-0.45968673,8.0445175,-0.0016981363,0.1194731,-0.07522009,12.236,-22.31,8.832,246.77347,1000,1000,1000,1000,0.0,0.0,0.0,0.0,1010.74,25.9,20.918882,53.702854,20.45449,0.53702855,-2.7529902,0.75195056,-1.4137486,-3.2698963,1.0894395,-0.0633132,0.064250566,0.0029547545,-1.8506012
15:10:18.850;-0.076614454,-0.5363012,8.00621,-0.1848036,-0.0025972128,0.16892053,12.236,-22.217997,8.740001,246.77098,1000,1000,1000,1000,0.0,0.0,0.0,0.0,1010.72,25.9,21.085346,53.702854,20.45449,0.53702855,-2.77747,0.7478117,-1.4236155,-3.832095,0.54704237,-0.06627006,0.064209014,0.001751233,-1.848114
15:10:18.869;-0.076614454,-0.5363012,8.00621,-0.1848036,-0.0025972128,0.16892053,12.236,-22.217997,8.740001,246.77098,1000,1000,1000,1000,0.0,0.0,0.0,0.0,1010.72,25.9,21.085346,53.702854,20.45449,0.53702855,-2.8020036,0.74374795,-1.4289602,-3.832095,0.54704237,-0.069781326,0.06415967,0.004960723,-1.848114
15:10:18.889;-0.15322891,-0.49799395,8.00621,-0.06273329,-0.06363237,-0.07522009,12.236,-22.217997,8.740001,246.77098,1000,1000,1000,1000,0.0,0.0,0.0,0.0,1010.72,25.9,21.085346,53.702854,20.45449,0.53702855,-2.8183038,0.7495746,-1.434198,-3.5586169,1.0943217,-0.070973255,0.062950656,0.008170214,-1.848114
15:10:18.900;-0.15322891,-0.49799395,8.00621,-0.06273329,-0.06363237,-0.07522009,12.236,-22.217997,8.740001,246.77098,1000,1000,1000,1000,0.0,0.0,0.0,0.0,1010.8,25.9,20.416851,53.771976,20.455181,0.5377198,-2.8336632,0.7559083,-1.4431398,-3.5586169,1.0943217,-0.07153785,0.062377963,0.007493233,-1.848114
15:10:18.909;-0.11492168,-0.5363012,8.0445175,-0.1848036,-0.06363237,-0.014184937,12.236,-22.401999,8.832,246.77596,1000,1000,1000,1000,0.0,0.0,0.0,0.0,1010.8,25.9,20.416851,53.771976,20.455181,0.5377198,-2.8554368,0.7563747,-1.4522233,-3.813687,0.816643,-0.073755495,0.061614376,0.0065905917,-1.8530884
15:10:18.924;-0.11492168,-0.5363012,8.0445175,-0.1848036,-0.06363237,-0.014184937,12.236,-22.401999,8.832,246.77596,1000,1000,1000,1000,0.0,0.0,0.0,0.0,1010.8,25.9,20.416851,53.771976,20.455181,0.5377198,-2.8773184,0.75664467,-1.4604491,-3.813687,0.816643,-0.07652755,0.06065989,0.0063778176,-1.8530884
15:10:18.938;-0.11492168,-0.5363012,8.0445175,-0.1848036,-0.06363237,-0.014184937,12.236,-22.401999,8.832,246.77596,1000,1000,1000,1000,0.0,0.0,0.0,0.0,1010.74,25.9,20.918882,53.771976,20.455181,0.5377198,-2.8985813,0.7569716,-1.4684964,-3.813687,0.816643,-0.0791148,0.059769034,0.0061792284,-1.8530884
15:10:18.953;-0.11492168,-0.49799395,8.00621,-0.12376845,0.1194731,-0.014184937,12.236,-22.401999,8.832,246.77596,1000,1000,1000,1000,0.0,0.0,0.0,0.0,1010.74,25.9,20.918882,53.771976,20.455181,0.5377198,-2.9136071,0.76000404,-1.4763968,-3.558901,0.8207849,-0.08097133,0.06156113,0.0059664543,-1.8530884
15:10:18.967;-0.11492168,-0.49799395,8.00621,-0.12376845,0.1194731,-0.014184937,12.236,-22.401999,8.832,246.77596,1000,1000,1000,1000,0.0,0.0,0.0,0.0,1010.74,25.9,20.918882,53.771976,20.455181,0.5377198,-2.9280899,0.76274174,-1.4841113,-3.558901,0.8207849,-0.08258032,0.06311428,0.00578205,-1.8530884
15:10:18.980;-0.11492168,-0.49799395,8.00621,-0.1848036,0.058437943,-0.014184937,12.328,-22.31,8.648,246.91597,1000,1000,1000,1000,0.0,0.0,0.0,0.0,1010.74,25.9,20.918882,53.771976,20.455181,0.5377198,-2.9432416,0.76470435,-1.4944857,-3.558901,0.8207849,-0.08516757,0.06393241,0.005583461,-1.993103
15:10:18.994;-0.11492168,-0.49799395,8.00621,-0.1848036,0.058437943,-0.014184937,12.328,-22.31,8.648,246.91597,1000,1000,1000,1000,0.0,0.0,0.0,0.0,1010.74,25.9,20.918882,53.771976,20.455181,0.5377198,-2.9580903,0.7666277,-1.5046527,-3.558901,0.8207849,-0.08775482,0.064750545,0.0053848717,-1.993103
15:10:19.008;-0.11492168,-0.5363012,8.00621,-0.1848036,0.058437943,0.04685022,12.328,-22.31,8.648,246.91597,1000,1000,1000,1000,0.0,0.0,0.0,0.0,1010.74,25.9,20.918882,53.771976,20.455181,0.5377198,-2.9781017,0.7685076,-1.5146164,-3.8318763,0.82053244,-0.090342075,0.06556868,0.0051862826,-1.993103
15:10:19.022;-0.11492168,-0.5363012,8.00621,-0.1848036,0.058437943,0.04685022,12.328,-22.31,8.648,246.91597,1000,1000,1000,1000,0.0,0.0,0.0,0.0,1010.74,25.9,20.918882,53.771976,20.455181,0.5377198,-2.9977129,0.77034986,-1.5235434,-3.8318763,0.82053244,-0.092929326,0.06638681,0.0058421856,-1.993103
15:10:19.036;-0.15322891,-0.49799395,8.0445175,-0.1848036,-0.124667525,-0.07522009,12.328,-22.401999,8.832,246.91809,1000,1000,1000,1000,0.0,0.0,0.0,0.0,1010.72,25.9,21.085346,53.702854,20.45449,0.53702855,-3.0111287,0.77501506,-1.5323342,-3.5417204,1.0891318,-0.09551658,0.06464147,0.0064980886,-1.995224
15:10:19.051;-0.15322891,-0.49799395,8.0445175,-0.1848036,-0.124667525,-0.07522009,12.328,-22.401999,8.832,246.91809,1000,1000,1000,1000,0.0,0.0,0.0,0.0,1010.72,25.9,21.085346,53.702854,20.45449,0.53702855,-3.0244572,0.7794648,-1.5426978,-3.5417204,1.0891318,-0.09828863,0.062771454,0.005369787,-1.995224
15:10:19.064;-0.11492168,-0.5363012,8.00621,0.05933702,0.058437943,0.04685022,12.328,-22.401999,8.832,246.91809,1000,1000,1000,1000,0.0,0.0,0.0,0.0,1010.72,25.9,21.085346,53.702854,20.45449,0.53702855,-3.0398498,0.78103065,-1.5527066,-3.8318763,0.82053244,-0.09751725,0.063531145,0.004391926,-1.995224
15:10:19.077;-0.11492168,-0.5363012,8.00621,0.05933702,0.058437943,0.04685022,12.328,-22.401999,8.832,246.91809,1000,1000,1000,1000,0.0,0.0,0.0,0.0,1010.83997,25.9,20.083923,53.771976,20.455181,0.5377198,-3.0549345,0.78256524,-1.56096,-3.8318763,0.82053244,-0.09674587,0.06429084,0.0050009787,-1.995224
15:10:19.096;-0.11492168,-0.5363012,8.00621,0.05933702,0.058437943,0.04685022,12.328,-22.401999,8.832,246.91809,1000,1000,1000,1000,0.0,0.0,0.0,0.0,1010.83997,25.9,20.083923,53.771976,20.455181,0.5377198,-3.0693684,0.7844127,-1.568773,-3.8318763,0.82053244,-0.095618464,0.06540116,0.005891133,-1.995224
15:10:19.110;-0.11492168,-0.45968673,8.00621,-0.12376845,-0.124667525,-0.014184937,12.236,-22.401999,8.832,246.77596,1000,1000,1000,1000,0.0,0.0,0.0,0.0,1010.83997,25.9,20.083923,53.771976,20.455181,0.5377198,-3.0753946,0.7834344,-1.5738165,-3.2857642,0.821019,-0.09735122,0.063655816,0.006547036,-1.8530884
15:10:19.125;-0.15322891,-0.49799395,8.00621,-0.1848036,0.1194731,0.04685022,12.236,-22.401999,8.832,246.77596,1000,1000,1000,1000,0.0,0.0,0.0,0.0,1010.77997,25.9,20.583313,53.771976,20.455181,0.5377198,-3.0877757,0.79140836,-1.5796105,-3.5586169,1.0943217,-0.10012328,0.06544791,0.006334262,-1.8530884
15:10:19.141;-0.15322891,-0.49799395,8.00621,-0.1848036,0.1194731,0.04685022,12.236,-22.401999,8.832,246.77596,1000,1000,1000,1000,0.0,0.0,0.0,0.0,1010.77997,25.9,20.583313,53.771976,20.455181,0.5377198,-3.1000903,0.79933995,-1.5843453,-3.5586169,1.0943217,-0.10308014,0.067359485,0.0070838653,-1.8530884
15:10:19.155;-0.19153613,-0.49799395,8.082825,-0.12376845,0.18050826,0.04685022,12.236,-22.401999,8.832,246.77596,1000,1000,1000,1000,0.0,0.0,0.0,0.0,1010.77997,25.9,20.583313,53.771976,20.455181,0.5377198,-3.110279,0.81292766,-1.5890774,-3.5246284,1.3548976,-0.1048129,0.0698866,0.0077397684,-1.8530884
15:10:19.170;-0.19153613,-0.49799395,8.082825,-0.12376845,0.18050826,0.04685022,12.236,-22.401999,8.832,246.77596,1000,1000,1000,1000,0.0,0.0,0.0,0.0,1010.77997,25.9,20.583313,53.771976,20.455181,0.5377198,-3.1203854,0.8264205,-1.5936688,-3.5246284,1.3548976,-0.106669426,0.072594225,0.008442522,-1.8530884
15:10:19.185;-0.15322891,-0.49799395,8.0445175,-0.06273329,-0.0025972128,0.107885376,12.236,-22.401999,8.832,246.77596,1000,1000,1000,1000,0.0,0.0,0.0,0.0,1010.77997,25.9,20.583313,53.771976,20.455181,0.5377198,-3.1297343,0.83163655,-1.5981685,-3.5417204,1.0891318,-0.10761043,0.07255527,0.009145276,-1.8530884
15:10:19.208;-0.15322891,-0.49799395,8.0445175,-0.06273329,-0.0025972128,0.107885376,12.236,-22.401999,8.832,246.77596,1000,1000,1000,1000,0.0,0.0,0.0,0.0,1010.62,25.9,21.917662,53.771976,20.455181,0.5377198,-3.1393266,0.8367305,-1.6009408,-3.5417204,1.0891318,-0.10899056,0.07249813,0.011518754,-1.8530884
15:10:19.212;-0.11492168,-0.5363012,8.0445175,-0.06273329,-0.06363237,-0.13625525,12.236,-22.401999,8.832,246.77596,1000,1000,1000,1000,0.0,0.0,0.0,0.0,1010.62,25.9,21.917662,53.771976,20.455181,0.5377198,-3.1531212,0.83601695,-1.605455,-3.813687,0.816643,-0.10930423,0.072179966,0.012058181,-1.8530884
15:10:19.229;-0.11492168,-0.5363012,8.0445175,-0.06273329,-0.06363237,-0.13625525,12.236,-22.401999,8.832,246.77596,1000,1000,1000,1000,0.0,0.0,0.0,0.0,1010.62,25.9,21.917662,53.702854,20.45449,0.53702855,-3.1673777,0.8345694,-1.6126777,-3.813687,0.816643,-0.110370696,0.071098216,0.009741841,-1.8530884
15:10:19.239;-0.038307227,-0.5363012,8.121132,0.18140733,0.058437943,-0.13625525,12.236,-22.494001,8.740001,246.77841,1000,1000,1000,1000,0.0,0.0,0.0,0.0,1010.77997,25.9,20.583313,53.702854,20.45449,0.53702855,-3.1778154,0.82384413,-1.6188703,-3.778156,0.26967373,-0.10855662,0.071682595,0.008379288,-1.855545
15:10:19.258;-0.038307227,-0.5363012,8.121132,0.18140733,0.058437943,-0.13625525,12.236,-22.494001,8.740001,246.77841,1000,1000,1000,1000,0.0,0.0,0.0,0.0,1010.77997,25.9,20.583313,53.702854,20.45449,0.53702855,-3.1866221,0.8137916,-1.6260073,-3.778156,0.26967373,-0.10529129,0.072734475,0.005926694,-1.855545
15:10:19.271;-0.076614454,-0.5363012,8.082825,-0.12376845,0.24154341,-0.07522009,12.236,-22.494001,8.740001,246.77841,1000,1000,1000,1000,0.0,0.0,0.0,0.0,1010.77997,25.9,20.583313,53.702854,20.45449,0.53702855,-3.2005055,0.8116673,-1.6324675,-3.7958817,0.5418803,-0.10702405,0.076116085,0.0040191202,-1.855545
15:10:19.284;-0.076614454,-0.5363012,8.082825,-0.12376845,0.24154341,-0.07522009,12.236,-22.494001,8.740001,246.77841,1000,1000,1000,1000,0.0,0.0,0.0,0.0,1010.86,25.9,19.917461,53.771976,20.455181,0.5377198,-3.2139897,0.8093489,-1.6378875,-3.7958817,0.5418803,-0.10863304,0.07925615,0.003041259,-1.855545
15:10:19.296;-0.4213795,-0.5363012,7.929596,0.120372176,-0.124667525,0.16892053,12.144,-22.862001,8.924,246.64775,1000,1000,1000,1000,0.0,0.0,0.0,0.0,1010.86,25.9,19.917461,53.771976,20.455181,0.5377198,-3.2255692,0.8523942,-1.640512,-3.8637497,3.034922,-0.107188575,0.07776014,0.002138618,-1.724884
15:10:19.311;-0.4213795,-0.5363012,7.929596,0.120372176,-0.124667525,0.16892053,12.144,-22.862001,8.924,246.64775,1000,1000,1000,1000,0.0,0.0,0.0,0.0,1010.86,25.9,19.917461,53.771976,20.455181,0.5377198,-3.2366815,0.8943343,-1.6398818,-3.8637497,3.034922,-0.105503365,0.076014794,0.0045035053,-1.724884
15:10:19.324;0.0,-0.5363012,8.236053,-0.1848036,0.058437943,-0.07522009,12.144,-22.862001,8.924,246.64775,1000,1000,1000,1000,0.0,0.0,0.0,0.0,1010.86,25.9,19.917461,53.771976,20.455181,0.5377198,-3.248996,0.8772494,-1.6392643,-3.7256284,-0.0,-0.10809062,0.07683293,0.006868393,-1.724884
15:10:19.345;0.0,-0.5363012,8.236053,-0.1848036,0.058437943,-0.07522009,12.144,-22.862001,8.924,246.64775,1000,1000,1000,1000,0.0,0.0,0.0,0.0,1010.86,25.9,19.917461,53.771976,20.455181,0.5377198,-3.262332,0.8609071,-1.6425247,-3.7256284,-0.0,-0.11197149,0.07806013,0.0052887714,-1.724884
15:10:19.359;-0.22984336,-0.49799395,7.8912888,-0.36790907,-0.06363237,-0.13625525,12.328,-23.137999,8.648,246.9347,1000,1000,1000,1000,0.0,0.0,0.0,0.0,1010.86,25.9,19.917461,53.771976,20.455181,0.5377198,-3.2743218,0.87611645,-1.6509428,-3.609438,1.6650271,-0.11712222,0.07716928,0.00423569,-2.0118256
15:10:19.378;-0.22984336,-0.49799395,7.8912888,-0.36790907,-0.06363237,-0.13625525,12.328,-23.137999,8.648,246.9347,1000,1000,1000,1000,0.0,0.0,0.0,0.0,1010.66,25.9,21.584736,53.771976,20.455181,0.5377198,-3.287514,0.8907722,-1.6605641,-3.609438,1.6650271,-0.12374458,0.07602389,0.0017830955,-2.0118256
15:10:19.386;-0.15322891,-0.4213795,7.8912888,-0.06273329,-0.0025972128,0.29099083,12.328,-23.137999,8.648,246.9347,1000,1000,1000,1000,0.0,0.0,0.0,0.0,1010.66,25.9,21.584736,53.771976,20.455181,0.5377198,-3.2833142,0.8951553,-1.668524,-3.0560055,1.1108174,-0.12418371,0.07600571,8.2930876E-4,-2.0118256
15:10:19.400;-0.15322891,-0.4213795,7.8912888,-0.06273329,-0.0025972128,0.29099083,12.328,-23.137999,8.648,246.9347,1000,1000,1000,1000,0.0,0.0,0.0,0.0,1010.66,25.9,21.584736,53.771976,20.455181,0.5377198,-3.2796903,0.89943033,-1.6711125,-3.0560055,1.1108174,-0.12512471,0.07596675,0.0051941713,-2.0118256
15:10:19.415;-0.15322891,-0.4213795,7.8912888,-0.06273329,-0.0025972128,0.29099083,12.328,-23.137999,8.648,246.9347,1000,1000,1000,1000,0.0,0.0,0.0,0.0,1010.77997,25.9,20.583313,53.771976,20.455181,0.5377198,-3.2761388,0.9036199,-1.673364,-3.0560055,1.1108174,-0.1260657,0.075927794,0.009850025,-2.0118256
15:10:19.433;-0.076614454,-0.61291564,7.929596,0.120372176,0.18050826,-0.44143105,12.512,-22.586,8.924,247.2052,1000,1000,1000,1000,0.0,0.0,0.0,0.0,1010.77997,25.9,20.583313,53.771976,20.455181,0.5377198,-3.296768,0.8999469,-1.6804104,-4.419666,0.55191904,-0.12377863,0.07935745,0.01508786,-2.2823334
15:10:19.443;-0.11492168,-0.4213795,7.967903,-0.30687392,-0.307773,0.22995569,12.512,-22.586,8.924,247.2052,1000,1000,1000,1000,0.0,0.0,0.0,0.0,1010.77997,25.9,20.583313,53.771976,20.455181,0.5377198,-3.2943785,0.8954352,-1.696775,-3.026931,0.82517123,-0.12684737,0.07627972,0.010673549,-2.2823334
15:10:19.458;-0.11492168,-0.4213795,7.967903,-0.30687392,-0.307773,0.22995569,12.512,-22.586,8.924,247.2052,1000,1000,1000,1000,0.0,0.0,0.0,0.0,1010.74,25.9,20.918882,53.771976,20.455181,0.5377198,-3.2935407,0.8895056,-1.7051058,-3.026931,0.82517123,-0.13145047,0.07166313,0.014122885,-2.2823334
15:10:19.472;-0.15322891,-0.38307226,8.082825,0.24244249,0.24154341,0.04685022,12.512,-22.586,8.924,247.2052,1000,1000,1000,1000,0.0,0.0,0.0,0.0,1010.74,25.9,20.918882,53.771976,20.455181,0.5377198,-3.2786021,0.8967261,-1.7134954,-2.7129228,1.0848285,-0.12805627,0.075044736,0.017342264,-2.2823334
15:10:19.487;-0.15322891,-0.38307226,8.082825,0.24244249,0.24154341,0.04685022,12.512,-22.586,8.924,247.2052,1000,1000,1000,1000,0.0,0.0,0.0,0.0,1010.74,25.9,20.918882,53.771976,20.455181,0.5377198,-3.2637246,0.9040388,-1.7241834,-2.7129228,1.0848285,-0.12441964,0.07866789,0.018045017,-2.2823334
15:10:19.501;-0.15322891,-0.49799395,8.121132,-0.1848036,-0.06363237,-0.6855717,12.236,-22.678,8.556,246.7833,1000,1000,1000,1000,0.0,0.0,0.0,0.0,1010.86,25.9,19.917461,53.771976,20.455181,0.5377198,-3.2709727,0.90672535,-1.7263114,-3.5084038,1.0788982,-0.12682208,0.07784066,0.01865407,-1.8604279
15:10:19.514;-0.15322891,-0.49799395,8.121132,-0.1848036,-0.06363237,-0.6855717,12.236,-22.678,8.556,246.7833,1000,1000,1000,1000,0.0,0.0,0.0,0.0,1010.86,25.9,19.917461,53.771976,20.455181,0.5377198,-3.278257,0.9092958,-1.7383999,-3.5084038,1.0788982,-0.12940933,0.07694981,0.009056067,-1.8604279
15:10:19.530;-0.22984336,-0.6512229,8.00621,0.120372176,0.48568404,0.29099083,12.236,-22.678,8.556,246.7833,1000,1000,1000,1000,0.0,0.0,0.0,0.0,1010.86,25.9,19.917461,53.702854,20.45449,0.53702855,-3.3037698,0.93150526,-1.7515903,-4.648278,1.6389933,-0.12748337,0.08472076,-0.00191308,-1.8604279
15:10:19.543;-0.22984336,-0.6512229,8.00621,0.120372176,0.48568404,0.29099083,12.236,-22.678,8.556,246.7833,1000,1000,1000,1000,0.0,0.0,0.0,0.0,1010.72,25.9,21.085346,53.702854,20.45449,0.53702855,-3.3292441,0.9513666,-1.750345,-4.648278,1.6389933,-0.12603891,0.09054897,0.0015788099,-1.8604279
15:10:19.556;-0.2681506,-0.5746084,8.0445175,-0.1848036,-0.124667525,0.04685022,12.052,-22.954,9.016001,246.51048,1000,1000,1000,1000,0.0,0.0,0.0,0.0,1010.72,25.9,21.085346,53.702854,20.45449,0.53702855,-3.3468618,0.9687149,-1.743098,-4.0833564,1.9043044,-0.12862615,0.08880363,0.005652682,-1.587616
15:10:19.570;-0.2681506,-0.5746084,8.0445175,-0.1848036,-0.124667525,0.04685022,12.052,-22.954,9.016001,246.51048,1000,1000,1000,1000,0.0,0.0,0.0,0.0,1010.72,25.9,21.085346,53.702854,20.45449,0.53702855,-3.3641272,0.9857162,-1.7393456,-4.0833564,1.9043044,-0.1312134,0.08705828,0.006308585,-1.587616
15:10:19.585;-0.2681506,-0.49799395,8.00621,-0.30687392,-0.18570268,-0.25832558,12.052,-22.954,9.016001,246.51048,1000,1000,1000,1000,0.0,0.0,0.0,0.0,1010.8,25.9,20.416851,53.702854,20.45449,0.53702855,-3.3722005,1.0017457,-1.7356682,-3.5572772,1.9145831,-0.13550963,0.08445845,0.006964488,-1.587616
15:10:19.599;-0.2681506,-0.49799395,8.00621,-0.30687392,-0.18570268,-0.25832558,12.052,-22.954,9.016001,246.51048,1000,1000,1000,1000,0.0,0.0,0.0,0.0,1010.8,25.9,20.416851,53.702854,20.45449,0.53702855,-3.3801124,1.0174546,-1.7362514,-3.5572772,1.9145831,-0.13980585,0.08185861,0.0033479298,-1.587616
15:10:19.613;-0.22984336,-0.49799395,8.00621,-0.06273329,0.18050826,0.53513145,12.512,-22.862001,8.648,247.20935,1000,1000,1000,1000,0.0,0.0,0.0,0.0,1010.8,25.9,20.416851,53.771976,20.455181,0.5377198,-3.384527,1.0324067,-1.7508003,-3.5578048,1.6412332,-0.14068411,0.08438573,-2.6862836E-4,-2.2864838
15:10:19.627;-0.22984336,-0.49799395,8.00621,-0.06273329,0.18050826,0.53513145,12.512,-22.862001,8.648,247.20935,1000,1000,1000,1000,0.0,0.0,0.0,0.0,1010.8,25.9,20.416851,53.771976,20.455181,0.5377198,-3.3888533,1.0470598,-1.754172,-3.5578048,1.6412332,-0.14156237,0.08691285,0.007223212,-2.2864838
15:10:19.641;-0.15322891,-0.49799395,7.929596,-0.24583876,-0.24673784,0.04685022,12.512,-22.862001,8.648,247.20935,1000,1000,1000,1000,0.0,0.0,0.0,0.0,1010.8,25.9,20.416851,53.771976,20.455181,0.5377198,-3.396548,1.0445886,-1.7569518,-3.5928972,1.1048509,-0.14524995,0.08321178,0.015250184,-2.2864838
15:10:19.655;-0.15322891,-0.49799395,7.929596,-0.24583876,-0.24673784,0.04685022,12.512,-22.862001,8.648,247.20935,1000,1000,1000,1000,0.0,0.0,0.0,0.0,1010.8,25.9,20.416851,53.771976,20.455181,0.5377198,-3.4036071,1.0426503,-1.7669456,-3.5928972,1.1048509,-0.14844584,0.080004185,0.015859237,-2.2864838
15:10:19.669;-0.19153613,-0.5746084,8.00621,0.120372176,0.24154341,-0.6855717,12.512,-22.862001,8.648,247.20935,1000,1000,1000,1000,0.0,0.0,0.0,0.0,1010.77997,25.9,20.583313,53.771976,20.455181,0.5377198,-3.415844,1.0526868,-1.7766477,-4.103928,1.3669363,-0.14664026,0.083627336,0.01656199,-2.2864838
15:10:19.683;-0.19153613,-0.5746084,8.00621,0.120372176,0.24154341,-0.6855717,12.512,-22.862001,8.648,247.20935,1000,1000,1000,1000,0.0,0.0,0.0,0.0,1010.77997,25.9,20.583313,53.771976,20.455181,0.5377198,-3.4279542,1.0622858,-1.7962505,-4.103928,1.3669363,-0.14495504,0.087008946,0.006963987,-2.2864838
15:10:19.697;-0.11492168,-0.5363012,7.8912888,-0.0016981363,-0.18570268,0.5961666,12.236,-22.494001,8.924,246.77841,1000,1000,1000,1000,0.0,0.0,0.0,0.0,1010.77997,25.9,20.583313,53.771976,20.455181,0.5377198,-3.4371686,1.0551407,-1.8068423,-3.8874989,0.8324257,-0.1449788,0.08440911,-0.0026340168,-1.855545
15:10:19.711;-0.11492168,-0.5363012,7.8912888,-0.0016981363,-0.18570268,0.5961666,12.236,-22.494001,8.924,246.77841,1000,1000,1000,1000,0.0,0.0,0.0,0.0,1010.8,25.9,20.416851,53.771976,20.455181,0.5377198,-3.4461987,1.0481386,-1.7996371,-3.8874989,0.8324257,-0.14500257,0.081809275,0.0057123164,-1.855545
15:10:19.725;-0.11492168,-0.5363012,7.929596,0.05933702,0.36361372,-0.86867714,12.236,-22.494001,8.924,246.77841,1000,1000,1000,1000,0.0,0.0,0.0,0.0,1010.8,25.9,20.416851,53.771976,20.455181,0.5377198,-3.4538362,1.0487331,-1.7925758,-3.8687797,0.82842326,-0.14417185,0.08689987,0.01405865,-1.855545
15:10:19.739;-0.11492168,-0.5363012,7.929596,0.05933702,0.36361372,-0.86867714,12.236,-22.494001,8.924,246.77841,1000,1000,1000,1000,0.0,0.0,0.0,0.0,1010.8,25.9,20.416851,53.771976,20.455181,0.5377198,-3.4613209,1.0493157,-1.8057535,-3.8687797,0.82842326,-0.14334112,0.09199046,0.0018971693,-1.855545
15:10:19.753;-0.2681506,-0.4213795,7.967903,-0.24583876,-0.307773,0.16892053,12.144,-22.769999,8.556,246.645,1000,1000,1000,1000,0.0,0.0,0.0,0.0,1010.77997,25.9,20.583313,53.771976,20.455181,0.5377198,-3.4559782,1.0626029,-1.8159994,-3.0255356,1.9248083,-0.14678286,0.08768164,-0.010264311,-1.7221375
15:10:19.767;-0.2681506,-0.4213795,7.967903,-0.24583876,-0.307773,0.16892053,12.144,-22.769999,8.556,246.645,1000,1000,1000,1000,0.0,0.0,0.0,0.0,1010.77997,25.9,20.583313,53.702854,20.45449,0.53702855,-3.4507422,1.0756243,-1.8118045,-3.0255356,1.9248083,-0.1502246,0.083372824,-0.007899423,-1.7221375
15:10:19.781;-0.38307226,-0.45968673,8.159439,-0.0016981363,0.18050826,0.352026,12.144,-22.769999,8.556,246.645,1000,1000,1000,1000,0.0,0.0,0.0,0.0,1010.77997,25.9,20.583313,53.702854,20.45449,0.53702855,-3.4461703,1.1102628,-1.8076936,-3.2209823,2.6837196,-0.15024836,0.08589994,-0.0055345353,-1.7221375
15:10:19.795;-0.38307226,-0.45968673,8.159439,-0.0016981363,0.18050826,0.352026,12.144,-22.769999,8.556,246.645,1000,1000,1000,1000,0.0,0.0,0.0,0.0,1010.74,25.9,20.918882,53.702854,20.45449,0.53702855,-3.44169,1.1442084,-1.8011526,-3.2209823,2.6837196,-0.15027213,0.08842706,-6.061713E-4,-1.7221375
15:10:19.810;-0.15322891,-0.5746084,8.0445175,-0.30687392,0.058437943,-0.5024662,11.868,-22.862001,8.832,246.2267,1000,1000,1000,1000,0.0,0.0,0.0,0.0,1010.74,25.9,20.918882,53.702854,20.45449,0.53702855,-3.4590647,1.1439521,-1.7860315,-4.0848784,1.0884438,-0.15487523,0.08930363,0.004674218,-1.303833
15:10:19.824;-0.15322891,-0.5746084,8.0445175,-0.30687392,0.058437943,-0.5024662,11.868,-22.862001,8.832,246.2267,1000,1000,1000,1000,0.0,0.0,0.0,0.0,1010.74,25.9,20.918882,53.702854,20.45449,0.53702855,-3.4757912,1.1436437,-1.7832814,-4.0848784,1.0884438,-0.15917146,0.09012176,-0.002360309,-1.303833
15:10:19.838;-0.2681506,-0.49799395,7.967903,0.120372176,0.18050826,0.5961666,11.868,-22.862001,8.832,246.2267,1000,1000,1000,1000,0.0,0.0,0.0,0.0,1010.77997,25.9,20.583313,53.702854,20.45449,0.53702855,-3.4761102,1.1617224,-1.7805864,-3.574316,1.9237452,-0.15748625,0.09264888,-0.009394836,-1.303833
15:10:19.853;-0.2681506,-0.49799395,7.967903,0.120372176,0.18050826,0.5961666,11.868,-22.862001,8.832,246.2267,1000,1000,1000,1000,0.0,0.0,0.0,0.0,1010.77997,25.9,20.583313,53.702854,20.45449,0.53702855,-3.4763048,1.1796163,-1.7622877,-3.574316,1.9237452,-0.15568066,0.0953565,-4.5233686E-4,-1.303833
15:10:19.870;-0.22984336,-0.5363012,8.082825,-0.06273329,0.24154341,-0.014184937,11.868,-22.862001,8.832,246.2267,1000,1000,1000,1000,0.0,0.0,0.0,0.0,1010.77997,25.9,20.583313,53.702854,20.45449,0.53702855,-3.4836526,1.1923164,-1.7437708,-3.7945225,1.6252533,-0.15668438,0.0992212,0.0090863295,-1.303833
15:10:19.882;-0.22984336,-0.5363012,8.082825,-0.06273329,0.24154341,-0.014184937,11.868,-22.862001,8.832,246.2267,1000,1000,1000,1000,0.0,0.0,0.0,0.0,1010.68,25.9,21.418272,53.702854,20.45449,0.53702855,-3.4906693,1.2040524,-1.7351528,-3.7945225,1.6252533,-0.15749991,0.10236126,0.008901926,-1.303833
15:10:19.896;-0.15322891,-0.38307226,7.8912888,-0.36790907,-0.18570268,-0.3803959,12.696,-22.586,8.924,247.48813,1000,1000,1000,1000,0.0,0.0,0.0,0.0,1010.68,25.9,21.418272,53.702854,20.45449,0.53702855,-3.4814765,1.1996454,-1.7519497,-2.7786438,1.1110916,-0.16265063,0.09976143,0.008703337,-2.5652618
15:10:19.914;-0.15322891,-0.38307226,7.8912888,-0.36790907,-0.18570268,-0.3803959,12.696,-22.586,8.924,247.48813,1000,1000,1000,1000,0.0,0.0,0.0,0.0,1010.68,25.9,21.418272,53.771976,20.455181,0.5377198,-3.4739096,1.1945986,-1.7749261,-2.7786438,1.1110916,-0.16927299,0.096418776,0.0018562111,-2.5652618
15:10:19.926;-0.038307227,-0.45968673,8.082825,0.30347764,0.36361372,0.22995569,12.696,-22.586,8.924,247.48813,1000,1000,1000,1000,0.0,0.0,0.0,0.0,1010.8,25.9,20.416851,53.771976,20.455181,0.5377198,-3.4662597,1.1800485,-1.7948334,-3.254985,0.2711039,-0.16593474,0.10041852,-0.0023281435,-2.5652618
15:10:19.940;-0.038307227,-0.45968673,8.082825,0.30347764,0.36361372,0.22995569,12.696,-22.586,8.924,247.48813,1000,1000,1000,1000,0.0,0.0,0.0,0.0,1010.8,25.9,20.416851,53.771976,20.455181,0.5377198,-3.4575732,1.1672148,-1.8068616,-3.254985,0.2711039,-0.16138257,0.10587273,0.0011211918,-2.5652618
15:10:19.953;-0.11492168,-0.5363012,7.8912888,-0.24583876,-0.124667525,-0.014184937,12.236,-22.31,8.924,246.77347,1000,1000,1000,1000,0.0,0.0,0.0,0.0,1010.8,25.9,20.416851,53.702854,20.45449,0.53702855,-3.4690628,1.159053,-1.8050321,-3.8874989,0.8324257,-0.16433264,0.10437672,0.00388066,-1.8506012
15:10:19.967;-0.11492168,-0.5363012,7.8912888,-0.24583876,-0.124667525,-0.014184937,12.236,-22.31,8.924,246.77347,1000,1000,1000,1000,0.0,0.0,0.0,0.0,1010.74,25.9,20.918882,53.702854,20.45449,0.53702855,-3.4810455,1.1506878,-1.806152,-3.8874989,0.8324257,-0.16802022,0.102506705,0.003667886,-1.8506012
15:10:19.981;-0.11492168,-0.49799395,7.967903,0.05933702,0.058437943,-0.44143105,12.236,-22.31,8.924,246.77347,1000,1000,1000,1000,0.0,0.0,0.0,0.0,1010.74,25.9,20.918882,53.702854,20.45449,0.53702855,-3.4821298,1.1449702,-1.8072356,-3.5759635,0.8247152,-0.1671895,0.10332484,0.0034692967,-1.8506012
15:10:19.995;-0.11492168,-0.49799395,7.967903,0.05933702,0.058437943,-0.44143105,12.236,-22.31,8.924,246.77347,1000,1000,1000,1000,0.0,0.0,0.0,0.0,1010.74,25.9,20.918882,53.702854,20.45449,0.53702855,-3.4831924,1.1393669,-1.8141594,-3.5759635,0.8247152,-0.16635877,0.10414297,-0.0027107382,-1.8506012
15:10:20.009;-0.15322891,-0.4213795,8.00621,-0.06273329,-0.307773,0.84030724,12.144,-22.678,8.740001,246.64223,1000,1000,1000,1000,0.0,0.0,0.0,0.0,1010.83997,25.9,20.083923,53.702854,20.45449,0.53702855,-3.4745727,1.1345569,-1.8178873,-3.012237,1.094921,-0.1671743,0.10014192,-0.008449342,-1.7193604
15:10:20.023;-0.15322891,-0.4213795,8.00621,-0.06273329,-0.307773,0.84030724,12.144,-22.678,8.740001,246.64223,1000,1000,1000,1000,0.0,0.0,0.0,0.0,1010.83997,25.9,20.083923,53.702854,20.45449,0.53702855,-3.4661868,1.1295415,-1.8043878,-3.012237,1.094921,-0.16805255,0.0958331,0.0033149598,-1.7193604
15:10:20.037;-0.038307227,-0.5746084,8.0445175,0.120372176,0.30257857,-0.6855717,12.144,-22.678,8.740001,246.64223,1000,1000,1000,1000,0.0,0.0,0.0,0.0,1010.83997,25.9,20.083923,53.702854,20.45449,0.53702855,-3.476923,1.116545,-1.7911583,-4.0855703,0.27214164,-0.16636734,0.1000692,0.015079262,-1.7193604
15:10:20.051;-0.038307227,-0.5746084,8.0445175,0.120372176,0.30257857,-0.6855717,12.144,-22.678,8.740001,246.64223,1000,1000,1000,1000,0.0,0.0,0.0,0.0,1010.72,25.9,21.085346,53.702854,20.45449,0.53702855,-3.4874444,1.1038083,-1.7991285,-4.0855703,0.27214164,-0.16468212,0.104305305,0.005481258,-1.7193604
15:10:20.065;-0.19153613,-0.45968673,7.967903,-0.24583876,-0.18570268,-0.25832558,12.144,-22.678,8.740001,246.64223,1000,1000,1000,1000,0.0,0.0,0.0,0.0,1010.72,25.9,21.085346,53.702854,20.45449,0.53702855,-3.4870868,1.1066793,-1.8069392,-3.3009143,1.374752,-0.16812386,0.10170547,-0.0041167457,-1.7193604
15:10:20.079;-0.19153613,-0.45968673,7.967903,-0.24583876,-0.18570268,-0.25832558,12.144,-22.678,8.740001,246.64223,1000,1000,1000,1000,0.0,0.0,0.0,0.0,1010.72,25.9,21.085346,53.702854,20.45449,0.53702855,-3.486977,1.109311,-1.8089851,-3.3009143,1.374752,-0.17181143,0.09891993,-0.007991629,-1.7193604
15:10:20.093;-0.076614454,-0.5363012,8.121132,0.05933702,0.30257857,0.84030724,12.236,-22.401999,8.740001,246.77596,1000,1000,1000,1000,0.0,0.0,0.0,0.0,1010.74,25.9,20.918882,53.702854,20.45449,0.53702855,-3.4920423,1.1017663,-1.8131583,-3.7780304,0.53933555,-0.17104004,0.10285345,-0.0113498615,-1.8530884
15:10:20.107;-0.076614454,-0.5363012,8.121132,0.05933702,0.30257857,0.84030724,12.236,-22.401999,8.740001,246.77596,1000,1000,1000,1000,0.0,0.0,0.0,0.0,1010.74,25.9,20.918882,53.702854,20.45449,0.53702855,-3.4968898,1.0949656,-1.8016044,-3.7780304,0.53933555,-0.17014998,0.107392125,0.0012547467,-1.8530884
15:10:20.121;-0.15322891,-0.45968673,7.967903,-0.1848036,-0.18570268,-0.7466068,12.236,-22.401999,8.740001,246.77596,1000,1000,1000,1000,0.0,0.0,0.0,0.0,1010.74,25.9,20.918882,53.702854,20.45449,0.53702855,-3.4955127,1.0925161,-1.791105,-3.3012567,1.0998777,-0.17273723,0.10479229,0.013019049,-1.8530884
15:10:20.135;-0.15322891,-0.45968673,7.967903,-0.1848036,-0.18570268,-0.7466068,12.236,-22.401999,8.740001,246.77596,1000,1000,1000,1000,0.0,0.0,0.0,0.0,1010.72,25.9,21.085346,53.702854,20.45449,0.53702855,-3.494163,1.0901155,-1.8025881,-3.3012567,1.0998777,-0.17532447,0.102192454,0.0025665527,-1.8530884
15:10:20.149;-0.19153613,-0.4213795,7.967903,-0.0016981363,-0.24673784,0.41306114,12.236,-22.31,8.740001,246.77347,1000,1000,1000,1000,0.0,0.0,0.0,0.0,1010.72,25.9,21.085346,53.702854,20.45449,0.53702855,-3.4848306,1.0924304,-1.8137919,-3.0263727,1.3751163,-0.17534824,0.09873813,-0.007885943,-1.8506012
15:10:20.165;-0.19153613,-0.4213795,7.967903,-0.0016981363,-0.24673784,0.41306114,12.236,-22.31,8.740001,246.77347,1000,1000,1000,1000,0.0,0.0,0.0,0.0,1010.72,25.9,21.085346,53.702854,20.45449,0.53702855,-3.475688,1.0942152,-1.8080512,-3.0263727,1.3751163,-0.1753754,0.094790325,-0.0012769648,-1.8506012
15:10:20.178;-0.076614454,-0.5746084,8.121132,0.42554796,0.48568404,0.4740963,12.236,-22.31,8.740001,246.77347,1000,1000,1000,1000,0.0,0.0,0.0,0.0,1010.72,25.9,21.085346,53.702854,20.45449,0.53702855,-3.4816933,1.0893017,-1.8036399,-4.0470223,0.5391624,-0.16984327,0.101104215,0.0040928302,-1.8506012
15:10:20.194;-0.076614454,-0.5746084,8.121132,0.42554796,0.48568404,0.4740963,12.236,-22.31,8.740001,246.77347,1000,1000,1000,1000,0.0,0.0,0.0,0.0,1010.72,25.9,21.085346,53.702854,20.45449,0.53702855,-3.4863274,1.0859144,-1.7971452,-4.0470223,0.5391624,-0.1630345,0.10887516,0.011678372,-1.8506012
15:10:20.208;-0.15322891,-0.45968673,7.929596,-0.36790907,-0.36880815,-0.807642,12.236,-22.31,8.648,246.77347,1000,1000,1000,1000,0.0,0.0,0.0,0.0,1010.74,25.9,20.918882,53.702854,20.45449,0.53702855,-3.487992,1.0812395,-1.7917098,-3.3171632,1.105172,-0.16818522,0.10371185,0.01831572,-1.8506012
15:10:20.222;-0.15322891,-0.45968673,7.929596,-0.36790907,-0.36880815,-0.807642,12.236,-22.31,8.648,246.77347,1000,1000,1000,1000,0.0,0.0,0.0,0.0,1010.74,25.9,20.918882,53.702854,20.45449,0.53702855,-3.4896233,1.0766581,-1.8039684,-3.3171632,1.105172,-0.17333594,0.09854854,0.0070087314,-1.8506012
15:10:20.237;-0.11492168,-0.5746084,7.967903,0.3645128,0.30257857,0.65720177,12.236,-22.31,8.648,246.77347,1000,1000,1000,1000,0.0,0.0,0.0,0.0,1010.74,25.9,20.918882,53.702854,20.45449,0.53702855,-3.4969592,1.0760565,-1.8167734,-4.124339,0.8241841,-0.16786824,0.10308722,-0.005105898,-1.8506012
15:10:20.251;-0.11492168,-0.5746084,7.967903,0.3645128,0.30257857,0.65720177,12.236,-22.31,8.648,246.77347,1000,1000,1000,1000,0.0,0.0,0.0,0.0,1010.74,25.9,20.918882,53.771976,20.455181,0.5377198,-3.5045056,1.0751704,-1.8084332,-4.124339,0.8241841,-0.16276506,0.10732332,0.0040949276,-1.8506012
15:10:20.265;-0.19153613,-0.4213795,7.967903,-0.1848036,-0.18570268,-0.1972904,12.236,-22.31,8.648,246.77347,1000,1000,1000,1000,0.0,0.0,0.0,0.0,1010.72,25.9,21.085346,53.771976,20.455181,0.5377198,-3.4974785,1.0786215,-1.8002597,-3.0263727,1.3751163,-0.1653523,0.10472348,0.013295753,-1.8506012
15:10:20.279;-0.19153613,-0.4213795,7.967903,-0.1848036,-0.18570268,-0.1972904,12.236,-22.31,8.648,246.77347,1000,1000,1000,1000,0.0,0.0,0.0,0.0,1010.72,25.9,21.085346,53.771976,20.455181,0.5377198,-3.4904108,1.0821856,-1.8037801,-3.0263727,1.3751163,-0.16775474,0.102309346,0.010730978,-1.8506012
15:10:20.293;-0.15322891,-0.49799395,8.00621,-0.1848036,-0.06363237,-0.807642,12.236,-22.401999,8.740001,246.77596,1000,1000,1000,1000,0.0,0.0,0.0,0.0,1010.72,25.9,21.085346,53.771976,20.455181,0.5377198,-3.4944916,1.081493,-1.8076664,-3.5586169,1.0943217,-0.17052679,0.10135486,0.0077716224,-1.8530884
15:10:20.307;-0.15322891,-0.49799395,8.00621,-0.1848036,-0.06363237,-0.807642,12.236,-22.401999,8.740001,246.77596,1000,1000,1000,1000,0.0,0.0,0.0,0.0,1010.83997,25.9,20.083923,53.771976,20.455181,0.5377198,-3.4983096,1.0808766,-1.8196557,-3.5586169,1.0943217,-0.17311403,0.10046401,-0.0035353657,-1.8530884
15:10:20.320;-0.076614454,-0.5363012,8.121132,0.05933702,0.24154341,0.7792721,12.236,-22.401999,8.740001,246.77596,1000,1000,1000,1000,0.0,0.0,0.0,0.0,1010.83997,25.9,20.083923,53.771976,20.455181,0.5377198,-3.503148,1.073123,-1.8306136,-3.7780304,0.53933555,-0.17234264,0.10360407,-0.014034712,-1.8530884
15:10:20.334;-0.076614454,-0.5363012,8.121132,0.05933702,0.24154341,0.7792721,12.236,-22.401999,8.740001,246.77596,1000,1000,1000,1000,0.0,0.0,0.0,0.0,1010.83997,25.9,20.083923,53.771976,20.455181,0.5377198,-3.5078318,1.0657612,-1.8203715,-3.7780304,0.53933555,-0.17151192,0.10698568,-0.003124902,-1.8530884
15:10:20.349;-0.22984336,-0.45968673,7.967903,-0.30687392,-0.124667525,-0.07522009,12.236,-22.217997,8.740001,246.77098,1000,1000,1000,1000,0.0,0.0,0.0,0.0,1010.8,25.9,20.416851,53.771976,20.455181,0.5377198,-3.5078955,1.0757269,-1.8102348,-3.3004959,1.6495633,-0.17580815,0.10524034,0.0077849077,-1.848114
15:10:20.363;-0.22984336,-0.45968673,7.967903,-0.30687392,-0.124667525,-0.07522009,12.236,-22.217997,8.740001,246.77098,1000,1000,1000,1000,0.0,0.0,0.0,0.0,1010.8,25.9,20.416851,53.771976,20.455181,0.5377198,-3.5079577,1.0854932,-1.8120245,-3.3004959,1.6495633,-0.18010437,0.103494994,0.0067318263,-1.848114
15:10:20.378;-0.076614454,-0.5363012,7.967903,0.05933702,0.18050826,-0.07522009,12.236,-22.217997,8.740001,246.77098,1000,1000,1000,1000,0.0,0.0,0.0,0.0,1010.8,25.9,20.416851,53.771976,20.455181,0.5377198,-3.5139356,1.07743,-1.8138521,-3.8504615,0.5496604,-0.17921431,0.10620262,0.005603525,-1.848114
15:10:20.391;-0.076614454,-0.5363012,7.967903,0.05933702,0.18050826,-0.07522009,12.236,-22.217997,8.740001,246.77098,1000,1000,1000,1000,0.0,0.0,0.0,0.0,1010.74,25.9,20.918882,53.771976,20.455181,0.5377198,-3.5199103,1.0691744,-1.8154956,-3.8504615,0.5496604,-0.17844293,0.10854922,0.0046256636,-1.848114
15:10:20.405;-0.11492168,-0.45968673,7.967903,0.05933702,-0.124667525,0.352026,12.236,-22.31,8.740001,246.77347,1000,1000,1000,1000,0.0,0.0,0.0,0.0,1010.74,25.9,20.918882,53.771976,20.455181,0.5377198,-3.5146704,1.0624573,-1.8173034,-3.3015232,0.8249526,-0.17755286,0.10667921,0.0034973621,-1.8506012
15:10:20.420;-0.11492168,-0.45968673,7.967903,0.05933702,-0.124667525,0.352026,12.236,-22.31,8.740001,246.77347,1000,1000,1000,1000,0.0,0.0,0.0,0.0,1010.74,25.9,20.918882,53.771976,20.455181,0.5377198,-3.5095353,1.0558746,-1.8127946,-3.3015232,0.8249526,-0.1766628,0.104809195,0.008777752,-1.8506012
15:10:20.433;-0.11492168,-0.45968673,7.967903,0.05933702,-0.124667525,0.352026,12.236,-22.31,8.740001,246.77347,1000,1000,1000,1000,0.0,0.0,0.0,0.0,1010.74,25.9,20.918882,53.702854,20.45449,0.53702855,-3.5046194,1.049668,-1.8090659,-3.3015232,0.8249526,-0.17589141,0.103188515,0.013354089,-1.8506012
15:10:20.447;-0.076614454,-0.5363012,8.00621,-0.0016981363,0.48568404,-0.44143105,12.236,-22.31,8.740001,246.77347,1000,1000,1000,1000,0.0,0.0,0.0,0.0,1010.74,25.9,20.918882,53.702854,20.45449,0.53702855,-3.5111923,1.046279,-1.8050668,-3.832095,0.54704237,-0.17591518,0.10998809,0.018282453,-1.8506012
15:10:20.461;-0.19153613,-0.49799395,8.00621,-0.24583876,0.058437943,0.22995569,12.236,-22.31,8.740001,246.77347,1000,1000,1000,1000,0.0,0.0,0.0,0.0,1010.74,25.9,20.918882,53.702854,20.45449,0.53702855,-3.5155063,1.0535113,-1.8120339,-3.5582514,1.3678086,-0.17935692,0.11080623,0.012102418,-1.8506012
15:10:20.478;-0.19153613,-0.49799395,8.00621,-0.24583876,0.058437943,0.22995569,12.236,-22.31,8.740001,246.77347,1000,1000,1000,1000,0.0,0.0,0.0,0.0,1010.74,25.9,20.918882,53.702854,20.45449,0.53702855,-3.5204568,1.0607709,-1.8089741,-3.5582514,1.3678086,-0.18353617,0.11179967,0.016011665,-1.8506012
15:10:20.490;-0.076614454,-0.5746084,8.0445175,0.120372176,0.36361372,-0.014184937,12.144,-22.31,8.648,246.631,1000,1000,1000,1000,0.0,0.0,0.0,0.0,1010.8,25.9,20.416851,53.702854,20.45449,0.53702855,-3.5303407,1.054717,-1.804253,-4.085432,0.544271,-0.18209171,0.11616304,0.018771132,-1.7081299
15:10:20.505;-0.076614454,-0.5746084,8.0445175,0.120372176,0.36361372,-0.014184937,12.144,-22.31,8.648,246.631,1000,1000,1000,1000,0.0,0.0,0.0,0.0,1010.8,25.9,20.416851,51.28381,20.4303,0.5128381,-3.539791,1.0494968,-1.8025252,-4.085432,0.544271,-0.1804065,0.12125363,0.018572543,-1.7081299
15:10:20.521;-0.15322891,-0.5363012,7.967903,-0.24583876,-0.18570268,-0.6245365,12.144,-22.31,8.648,246.631,1000,1000,1000,1000,0.0,0.0,0.0,0.0,1010.8,25.9,20.416851,51.28381,20.4303,0.5128381,-3.5500896,1.0473974,-1.8008735,-3.8499293,1.0992197,-0.18458575,0.11809669,0.0183314,-1.7081299
15:10:20.534;-0.15322891,-0.5363012,7.967903,-0.24583876,-0.18570268,-0.6245365,12.144,-22.31,8.648,246.631,1000,1000,1000,1000,0.0,0.0,0.0,0.0,1010.74,25.9,20.918882,51.28381,20.4303,0.5128381,-3.5592184,1.046068,-1.8069752,-3.8499293,1.0992197,-0.18778165,0.11568255,0.010212424,-1.7081299
15:10:20.549;-0.22984336,-0.4213795,8.0445175,-0.1848036,-0.0025972128,0.352026,12.144,-22.401999,8.740001,246.63382,1000,1000,1000,1000,0.0,0.0,0.0,0.0,1010.74,25.9,20.918882,51.28381,20.4303,0.5128381,-3.5506957,1.0577952,-1.8142354,-2.9972463,1.6343377,-0.1905537,0.11564359,8.443771E-4,-1.7109528
15:10:20.564;-0.22984336,-0.4213795,8.0445175,-0.1848036,-0.0025972128,0.352026,12.144,-22.401999,8.740001,246.63382,1000,1000,1000,1000,0.0,0.0,0.0,0.0,1010.74,25.9,20.918882,51.28381,20.4303,0.5128381,-3.5421622,1.0692904,-1.80734,-2.9972463,1.6343377,-0.19314094,0.11560723,0.005772741,-1.7109528
15:10:20.578;-0.076614454,-0.5746084,8.082825,-0.0016981363,0.24154341,0.04685022,12.144,-22.401999,8.740001,246.63382,1000,1000,1000,1000,0.0,0.0,0.0,0.0,1010.8,25.9,20.416851,51.28381,20.4303,0.5128381,-3.5526667,1.0622894,-1.8002375,-4.066137,0.54170465,-0.1931664,0.11923038,0.01105313,-1.7109528
15:10:20.592;-0.076614454,-0.5746084,8.082825,-0.0016981363,0.24154341,0.04685022,12.144,-22.401999,8.740001,246.63382,1000,1000,1000,1000,0.0,0.0,0.0,0.0,1010.8,25.9,20.416851,51.28381,20.4303,0.5128381,-3.5629594,1.0551916,-1.7978091,-4.066137,0.54170465,-0.19319017,0.12261199,0.0117090335,-1.7109528
15:10:20.606;-0.15322891,-0.4213795,7.967903,-0.36790907,-0.0025972128,-0.31936073,12.236,-22.31,8.740001,246.77347,1000,1000,1000,1000,0.0,0.0,0.0,0.0,1010.8,25.9,20.416851,51.28381,20.4303,0.5128381,-3.557282,1.0560555,-1.7982222,-3.0266867,1.1001691,-0.1983409,0.12257563,0.012364937,-1.8506012
15:10:20.620;-0.15322891,-0.4213795,7.967903,-0.36790907,-0.0025972128,-0.31936073,12.236,-22.31,8.740001,246.77347,1000,1000,1000,1000,0.0,0.0,0.0,0.0,1010.83997,25.9,20.083923,51.28381,20.4303,0.5128381,-3.551718,1.0569023,-1.8036515,-3.0266867,1.1001691,-0.20349161,0.122539274,0.007893886,-1.8506012
15:10:20.634;-0.076614454,-0.5363012,8.121132,0.120372176,0.18050826,0.41306114,12.236,-22.31,8.740001,246.77347,1000,1000,1000,1000,0.0,0.0,0.0,0.0,1010.83997,25.9,20.083923,51.28381,20.4303,0.5128381,-3.5545928,1.0490274,-1.8089721,-3.7780304,0.53933555,-0.2018064,0.12506638,0.0034228358,-1.8506012
15:10:20.648;-0.076614454,-0.5363012,8.121132,0.120372176,0.18050826,0.41306114,12.236,-22.31,8.740001,246.77347,1000,1000,1000,1000,0.0,0.0,0.0,0.0,1010.83997,25.9,20.083923,51.28381,20.4303,0.5128381,-3.5574102,1.0413102,-1.8041375,-3.7780304,0.53933555,-0.20012118,0.1275935,0.0092056915,-1.8506012
15:10:20.662;-0.15322891,-0.45968673,7.929596,-0.1848036,-0.06363237,-0.25832558,12.236,-22.31,8.740001,246.77347,1000,1000,1000,1000,0.0,0.0,0.0,0.0,1010.8,25.9,20.416851,51.28381,20.4303,0.5128381,-3.555141,1.0417144,-1.7993995,-3.3171632,1.105172,-0.20270842,0.12670265,0.014988547,-1.8506012
15:10:20.676;-0.15322891,-0.45968673,7.929596,-0.1848036,-0.06363237,-0.25832558,12.236,-22.31,8.740001,246.77347,1000,1000,1000,1000,0.0,0.0,0.0,0.0,1010.8,25.9,20.416851,51.28381,20.4303,0.5128381,-3.552917,1.0421106,-1.8039677,-3.3171632,1.105172,-0.20529567,0.1258118,0.011371989,-1.8506012
15:10:20.690;-0.11492168,-0.5363012,7.929596,-0.0016981363,0.30257857,-0.07522009,12.236,-22.401999,8.740001,246.77596,1000,1000,1000,1000,0.0,0.0,0.0,0.0,1010.8,25.9,20.416851,51.28381,20.4303,0.5128381,-3.5592575,1.0419881,-1.8084943,-3.8687797,0.82842326,-0.20531943,0.1300479,0.0077554304,-1.8530884
15:10:20.704;-0.11492168,-0.5363012,7.929596,-0.0016981363,0.30257857,-0.07522009,12.236,-22.401999,8.740001,246.77596,1000,1000,1000,1000,0.0,0.0,0.0,0.0,1010.68,25.9,21.418272,51.28381,20.4303,0.5128381,-3.5654712,1.0418682,-1.8104182,-3.8687797,0.82842326,-0.2053432,0.134284,0.006702349,-1.8530884
15:10:20.719;-0.076614454,-0.49799395,8.00621,-0.0016981363,-0.124667525,0.22995569,12.236,-22.401999,8.740001,246.77596,1000,1000,1000,1000,0.0,0.0,0.0,0.0,1010.68,25.9,21.418272,51.28381,20.4303,0.5128381,-3.5653672,1.0302647,-1.8123037,-3.5591042,0.54721075,-0.20536697,0.13253866,0.0056492677,-1.8530884
15:10:20.733;-0.076614454,-0.49799395,8.00621,-0.0016981363,-0.124667525,0.22995569,12.236,-22.401999,8.740001,246.77596,1000,1000,1000,1000,0.0,0.0,0.0,0.0,1010.68,25.9,21.418272,51.28381,20.4303,0.5128381,-3.5652654,1.0188932,-1.8099643,-3.5591042,0.54721075,-0.20539074,0.13079332,0.008868648,-1.8530884
15:10:20.746;-0.11492168,-0.4213795,7.967903,-0.12376845,0.058437943,-0.5024662,12.144,-22.401999,8.740001,246.63382,1000,1000,1000,1000,0.0,0.0,0.0,0.0,1010.8,25.9,20.416851,53.702854,20.45449,0.53702855,-3.556197,1.0158206,-1.8048291,-3.026931,0.82517123,-0.20712349,0.13161145,0.012088028,-1.7109528
15:10:20.761;-0.11492168,-0.4213795,7.967903,-0.12376845,0.058437943,-0.5024662,12.144,-22.401999,8.740001,246.63382,1000,1000,1000,1000,0.0,0.0,0.0,0.0,1010.8,25.9,20.416851,53.702854,20.45449,0.53702855,-3.5473099,1.0128094,-1.8098454,-3.026931,0.82517123,-0.20885624,0.13242958,0.0050535006,-1.7109528
15:10:20.775;-0.11492168,-0.5363012,8.00621,-0.0016981363,0.24154341,0.16892053,12.144,-22.401999,8.740001,246.63382,1000,1000,1000,1000,0.0,0.0,0.0,0.0,1010.8,25.9,20.416851,53.702854,20.45449,0.53702855,-3.5530245,1.0122778,-1.8147614,-3.8318763,0.82053244,-0.20888,0.1358112,-0.0019810265,-1.7109528
15:10:20.789;-0.11492168,-0.5363012,8.00621,-0.0016981363,0.24154341,0.16892053,12.144,-22.401999,8.740001,246.63382,1000,1000,1000,1000,0.0,0.0,0.0,0.0,1010.86,25.9,19.917461,78.51538,20.702616,0.7851538,-3.558625,1.0117569,-1.8103677,-3.8318763,0.82053244,-0.20890377,0.1391928,3.8386113E-4,-1.7109528
15:10:20.805;-0.15322891,-0.5363012,8.0445175,-0.12376845,-0.06363237,-0.014184937,12.236,-22.494001,8.740001,246.77841,1000,1000,1000,1000,0.0,0.0,0.0,0.0,1010.86,25.9,19.917461,78.51538,20.702616,0.7851538,-3.5657823,1.0122377,-1.8084571,-3.8133852,1.0888,-0.21100783,0.13811105,0.0032555102,-1.855545
15:10:20.820;-0.15322891,-0.5363012,8.0445175,-0.12376845,-0.06363237,-0.014184937,12.236,-22.494001,8.740001,246.77841,1000,1000,1000,1000,0.0,0.0,0.0,0.0,1010.86,25.9,19.917461,53.771976,20.455181,0.5377198,-3.5724325,1.012896,-1.8095934,-3.8133852,1.0888,-0.21274059,0.1372202,0.003056921,-1.855545
15:10:20.834;-0.076614454,-0.5363012,7.967903,0.05933702,0.1194731,-0.44143105,12.236,-22.494001,8.740001,246.77841,1000,1000,1000,1000,0.0,0.0,0.0,0.0,1010.72,25.9,21.085346,53.771976,20.455181,0.5377198,-3.577121,1.0053875,-1.8107209,-3.8504615,0.5496604,-0.21185052,0.1390123,0.002844147,-1.855545
15:10:20.849;-0.076614454,-0.5363012,7.967903,0.05933702,0.1194731,-0.44143105,12.236,-22.494001,8.740001,246.77841,1000,1000,1000,1000,0.0,0.0,0.0,0.0,1010.72,25.9,21.085346,53.771976,20.455181,0.5377198,-3.5817738,0.99791217,-1.8176739,-3.8504615,0.5496604,-0.2110198,0.14068493,-0.003335888,-1.855545
15:10:20.861;-0.15322891,-0.45968673,8.00621,-0.24583876,0.1194731,0.29099083,12.236,-22.494001,8.740001,246.77841,1000,1000,1000,1000,0.0,0.0,0.0,0.0,1010.72,25.9,21.085346,53.771976,20.455181,0.5377198,-3.5789804,1.0013686,-1.8240552,-3.2855017,1.0946337,-0.2142157,0.14223808,-0.009074492,-1.855545
15:10:20.876;-0.15322891,-0.45968673,8.00621,-0.24583876,0.1194731,0.29099083,12.236,-22.494001,8.740001,246.77841,1000,1000,1000,1000,0.0,0.0,0.0,0.0,1010.77997,25.9,20.583313,53.771976,20.455181,0.5377198,-3.5767248,1.0049901,-1.8204074,-3.2855017,1.0946337,-0.21790327,0.14403018,-0.00470963,-1.855545
15:10:20.890;-0.076614454,-0.5363012,8.00621,-0.0016981363,0.058437943,0.16892053,12.236,-22.401999,8.740001,246.77596,1000,1000,1000,1000,0.0,0.0,0.0,0.0,1010.77997,25.9,20.583313,85.91075,20.77657,0.8591075,-3.5818555,0.99663293,-1.8170686,-3.832095,0.54704237,-0.21792704,0.14484832,-6.3575804E-4,-1.8530884
15:10:20.905;-0.076614454,-0.5363012,8.00621,-0.0016981363,0.058437943,0.16892053,12.236,-22.401999,8.740001,246.77596,1000,1000,1000,1000,0.0,0.0,0.0,0.0,1010.77997,25.9,20.583313,85.91075,20.77657,0.8591075,-3.5868852,0.9885002,-1.8153058,-3.832095,0.54704237,-0.2179525,0.1457249,0.0018980498,-1.8530884
15:10:20.919;-0.15322891,-0.49799395,7.929596,-0.24583876,0.18050826,-0.1972904,12.236,-22.401999,8.740001,246.77596,1000,1000,1000,1000,0.0,0.0,0.0,0.0,1010.8,25.9,20.416851,85.979866,20.77726,0.85979867,-3.5903785,0.9933038,-1.8137438,-3.5928972,1.1048509,-0.22139424,0.14825201,0.0042629372,-1.8530884
15:10:20.934;-0.15322891,-0.49799395,7.929596,-0.24583876,0.18050826,-0.1972904,12.236,-22.401999,8.740001,246.77596,1000,1000,1000,1000,0.0,0.0,0.0,0.0,1010.8,25.9,20.416851,85.979866,20.77726,0.85979867,-3.5940428,0.99818814,-1.8174309,-3.5928972,1.1048509,-0.22508182,0.15095964,0.0013035813,-1.8530884
15:10:20.947;-0.11492168,-0.49799395,8.082825,-0.0016981363,0.058437943,0.29099083,12.144,-22.494001,8.740001,246.63664,1000,1000,1000,1000,0.0,0.0,0.0,0.0,1010.8,25.9,20.416851,85.979866,20.77726,0.85979867,-3.5926888,0.9952296,-1.8178713,-3.5252597,0.8130356,-0.22510388,0.15171933,-0.001261194,-1.7137756
15:10:20.961;-0.11492168,-0.49799395,8.082825,-0.0016981363,0.058437943,0.29099083,12.144,-22.494001,8.740001,246.63664,1000,1000,1000,1000,0.0,0.0,0.0,0.0,1010.86,25.9,19.917461,85.979866,20.77726,0.85979867,-3.5913637,0.9923875,-1.8117971,-3.5252597,0.8130356,-0.22512765,0.15253747,0.0028126778,-1.7137756
15:10:20.975;-0.11492168,-0.5363012,8.00621,-0.1848036,-0.0025972128,-0.014184937,12.144,-22.494001,8.740001,246.63664,1000,1000,1000,1000,0.0,0.0,0.0,0.0,1010.86,25.9,19.917461,85.979866,20.77726,0.85979867,-3.5987096,0.9889148,-1.8058444,-3.8318763,0.82053244,-0.2277149,0.1525011,0.0068865493,-1.7137756
15:10:20.989;-0.11492168,-0.5363012,8.00621,-0.1848036,-0.0025972128,-0.014184937,12.144,-22.494001,8.740001,246.63664,1000,1000,1000,1000,0.0,0.0,0.0,0.0,1010.86,25.9,19.917461,53.702854,20.45449,0.53702855,-3.6059086,0.98551154,-1.8041978,-3.8318763,0.82053244,-0.23030214,0.15246475,0.00668796,-1.7137756
15:10:21.003;-0.30645782,-0.45968673,7.967903,-0.12376845,-0.06363237,-0.1972904,12.144,-22.401999,8.832,246.63382,1000,1000,1000,1000,0.0,0.0,0.0,0.0,1010.8,25.9,20.416851,53.702854,20.45449,0.53702855,-3.6014771,1.0089071,-1.8025275,-3.2994316,2.1989453,-0.23203489,0.1515739,0.006489371,-1.7109528
15:10:21.017;-0.30645782,-0.45968673,7.967903,-0.12376845,-0.06363237,-0.1972904,12.144,-22.401999,8.832,246.63382,1000,1000,1000,1000,0.0,0.0,0.0,0.0,1010.8,25.9,20.416851,53.771976,20.455181,0.5377198,-3.5971344,1.0318347,-1.8034029,-3.2994316,2.1989453,-0.23376764,0.15068305,0.0037273052,-1.7109528
15:10:21.031;-0.38307226,-0.6512229,8.0445175,0.120372176,-0.18570268,0.22995569,12.144,-22.401999,8.832,246.63382,1000,1000,1000,1000,0.0,0.0,0.0,0.0,1010.8,25.9,20.416851,53.771976,20.455181,0.5377198,-3.6159985,1.0629988,-1.8042607,-4.622922,2.717435,-0.23208243,0.14808321,9.652395E-4,-1.7109528
15:10:21.046;-0.38307226,-0.6512229,8.0445175,0.120372176,-0.18570268,0.22995569,12.144,-22.401999,8.832,246.63382,1000,1000,1000,1000,0.0,0.0,0.0,0.0,1010.74,25.9,20.918882,53.771976,20.455181,0.5377198,-3.6343675,1.0933576,-1.7990142,-4.622922,2.717435,-0.23027684,0.14529768,0.0044145747,-1.7109528
15:10:21.060;-0.076614454,-0.4213795,8.00621,-0.06273329,-0.307773,-0.3803959,12.144,-22.401999,8.832,246.63382,1000,1000,1000,1000,0.0,0.0,0.0,0.0,1010.74,25.9,20.918882,81.00354,20.727497,0.8100354,-3.622794,1.078218,-1.794098,-3.01265,0.5475105,-0.2311551,0.14098886,0.0076339543,-1.7109528
15:10:21.073;-0.076614454,-0.4213795,8.00621,-0.06273329,-0.307773,-0.3803959,12.144,-22.401999,8.832,246.63382,1000,1000,1000,1000,0.0,0.0,0.0,0.0,1010.74,25.9,20.918882,81.00354,20.727497,0.8100354,-3.6113904,1.0636828,-1.7972814,-3.01265,0.5475105,-0.23197062,0.1369878,0.0026888074,-1.7109528
15:10:21.088;-0.38307226,-0.49799395,7.967903,0.18140733,0.18050826,0.107885376,12.236,-22.862001,8.740001,246.78815,1000,1000,1000,1000,0.0,0.0,0.0,0.0,1010.86,25.9,19.917461,81.00354,20.727497,0.8100354,-3.6079402,1.1000053,-1.8042332,-3.5722191,2.7471333,-0.2292495,0.13969544,-0.0030171308,-1.8652802
15:10:21.102;-0.38307226,-0.49799395,7.967903,0.18140733,0.18050826,0.107885376,12.236,-22.862001,8.740001,246.78815,1000,1000,1000,1000,0.0,0.0,0.0,0.0,1010.86,25.9,19.917461,81.00354,20.727497,0.8100354,-3.6047368,1.1354244,-1.803974,-3.5722191,2.7471333,-0.2267098,0.14222255,-0.0015067355,-1.8652802
15:10:21.115;0.0,-0.5746084,8.159439,-0.24583876,-0.18570268,0.352026,12.236,-22.862001,8.740001,246.78815,1000,1000,1000,1000,0.0,0.0,0.0,0.0,1010.86,25.9,19.917461,81.00354,20.727497,0.8100354,-3.6163394,1.1103501,-1.8038257,-4.0282636,-0.0,-0.2299057,0.13980842,-1.0422559E-4,-1.8652802
15:10:21.130;0.0,-0.5746084,8.159439,-0.24583876,-0.18570268,0.352026,12.236,-22.862001,8.740001,246.78815,1000,1000,1000,1000,0.0,0.0,0.0,0.0,1010.74,25.9,20.918882,51.28381,20.4303,0.5128381,-3.6281917,1.0854133,-1.79988,-4.0282636,-0.0,-0.23359327,0.13702288,0.0051761637,-1.8652802
15:10:21.144;-0.30645782,-0.49799395,7.929596,0.120372176,-0.124667525,-0.56350136,10.948,-22.862001,9.936001,244.82462,1000,1000,1000,1000,0.0,0.0,0.0,0.0,1010.74,25.9,20.918882,51.28381,20.4303,0.5128381,-3.6257944,1.1061722,-1.7570876,-3.5908926,2.208881,-0.23190805,0.13527754,0.010104528,0.09825134
15:10:21.159;-0.30645782,-0.49799395,7.929596,0.120372176,-0.124667525,-0.56350136,10.948,-22.862001,9.936001,244.82462,1000,1000,1000,1000,0.0,0.0,0.0,0.0,1010.74,25.9,20.918882,51.28381,20.4303,0.5128381,-3.623327,1.1263937,-1.7282643,-3.5908926,2.208881,-0.23010246,0.13340753,0.0016520079,0.09825134
15:10:21.179;-0.22984336,-0.4213795,7.929596,-0.1848036,-0.0025972128,0.29099083,10.948,-22.862001,9.936001,244.82462,1000,1000,1000,1000,0.0,0.0,0.0,0.0,1010.77997,25.9,20.583313,48.79565,20.405418,0.4879565,-3.615294,1.1369737,-1.7027787,-3.0405676,1.6579444,-0.23379853,0.13335559,-0.009618019,0.09825134
15:10:21.187;-0.22984336,-0.4213795,7.929596,-0.1848036,-0.0025972128,0.29099083,10.948,-22.862001,9.936001,244.82462,1000,1000,1000,1000,0.0,0.0,0.0,0.0,1010.77997,25.9,20.583313,48.79565,20.405418,0.4879565,-3.6050673,1.1473753,-1.6647619,-3.0405676,1.6579444,-0.23509216,0.13333741,-0.007581083,0.09825134
15:10:21.200;0.0,-0.5363012,8.0445175,-0.24583876,0.18050826,-0.07522009,10.764,-22.862001,10.028,244.54457,1000,1000,1000,1000,0.0,0.0,0.0,0.0,1010.77997,25.9,20.583313,48.79565,20.405418,0.4879565,-3.6126204,1.1269045,-1.6199085,-3.814075,-0.0,-0.2385339,0.13586453,-0.0035072113,0.3782959
15:10:21.215;0.0,-0.5363012,8.0445175,-0.24583876,0.18050826,-0.07522009,10.764,-22.862001,10.028,244.54457,1000,1000,1000,1000,0.0,0.0,0.0,0.0,1010.83997,25.9,20.083923,48.79565,20.405418,0.4879565,-3.620263,1.1070199,-1.5810502,-3.814075,-0.0,-0.24222147,0.13857216,-0.004635513,0.3782959
15:10:21.228;-0.2681506,-0.5363012,7.967903,-0.1848036,-0.24673784,-0.31936073,10.764,-22.862001,10.028,244.54457,1000,1000,1000,1000,0.0,0.0,0.0,0.0,1010.83997,25.9,20.083923,48.79565,20.405418,0.4879565,-3.6271815,1.120199,-1.5428216,-3.8484669,1.9231479,-0.24462391,0.13536456,-0.005613374,0.3782959
15:10:21.246;-0.2681506,-0.5363012,7.967903,-0.1848036,-0.24673784,-0.31936073,10.764,-22.862001,10.028,244.54457,1000,1000,1000,1000,0.0,0.0,0.0,0.0,1010.83997,25.9,20.083923,48.79565,20.405418,0.4879565,-3.6348672,1.1319054,-1.5100329,-3.8484669,1.9231479,-0.24795038,0.13092329,-0.011361867,0.3782959
15:10:21.259;0.038307227,-0.5363012,8.121132,0.05933702,-0.124667525,0.29099083,10.764,-22.862001,10.028,244.54457,1000,1000,1000,1000,0.0,0.0,0.0,0.0,1010.74,25.9,20.918882,48.79565,20.405418,0.4879565,-3.636977,1.1022856,-1.476335,-3.778156,-0.26967373,-0.24717899,0.1293026,-0.015513557,0.3782959
15:10:21.272;0.038307227,-0.5363012,8.121132,0.05933702,-0.124667525,0.29099083,10.764,-22.862001,10.028,244.54457,1000,1000,1000,1000,0.0,0.0,0.0,0.0,1010.74,25.9,20.918882,48.79565,20.405418,0.4879565,-3.6390445,1.0732582,-1.4355353,-3.778156,-0.26967373,-0.2464076,0.12768193,-0.0117306765,0.3782959
15:10:21.287;-0.38307226,-0.4213795,7.967903,-0.06273329,-0.0025972128,-0.13625525,10.764,-22.954,9.752,244.55244,1000,1000,1000,1000,0.0,0.0,0.0,0.0,1010.74,25.9,20.918882,48.79565,20.405418,0.4879565,-3.627661,1.1067278,-1.3951387,-3.0237594,2.7486503,-0.24734859,0.12764297,-0.007365814,0.37042236
15:10:21.300;-0.38307226,-0.4213795,7.967903,-0.06273329,-0.0025972128,-0.13625525,10.764,-22.954,9.752,244.55244,1000,1000,1000,1000,0.0,0.0,0.0,0.0,1010.74,25.9,20.918882,48.79565,20.405418,0.4879565,-3.6163824,1.1395333,-1.3615634,-3.0237594,2.7486503,-0.24816412,0.12760921,-0.009137132,0.37042236
15:10:21.317;-0.15322891,-0.49799395,8.00621,0.05933702,-0.06363237,0.107885376,10.764,-22.954,9.752,244.55244,1000,1000,1000,1000,0.0,0.0,0.0,0.0,1010.86,25.9,19.917461,41.331158,20.330772,0.41331157,-3.6142385,1.1375691,-1.3291938,-3.5586169,1.0943217,-0.24715538,0.12652746,-0.011453472,0.37042236
15:10:21.331;-0.15322891,-0.49799395,8.00621,0.05933702,-0.06363237,0.107885376,10.764,-22.954,9.752,244.55244,1000,1000,1000,1000,0.0,0.0,0.0,0.0,1010.86,25.9,19.917461,41.331158,20.330772,0.41331157,-3.6123703,1.1358936,-1.293827,-3.5586169,1.0943217,-0.246384,0.12570024,-0.010050962,0.37042236
15:10:21.346;-0.076614454,-0.49799395,7.967903,0.120372176,0.24154341,0.41306114,11.224,-22.401999,10.12,245.21364,1000,1000,1000,1000,0.0,0.0,0.0,0.0,1010.86,25.9,19.917461,41.331158,20.330772,0.41331157,-3.6097589,1.1279596,-1.2720743,-3.5761695,0.5498312,-0.24445803,0.12956493,-0.008324795,-0.29077148
15:10:21.358;-0.076614454,-0.49799395,7.967903,0.120372176,0.24154341,0.41306114,11.224,-22.401999,10.12,245.21364,1000,1000,1000,1000,0.0,0.0,0.0,0.0,1010.86,25.9,19.917461,41.331158,20.330772,0.41331157,-3.6077895,1.1190008,-1.2479955,-3.5761695,0.5498312,-0.24313395,0.1322219,-0.003781123,-0.29077148
15:10:21.373;-0.11492168,-0.45968673,7.8529816,-0.42894423,-0.36880815,-0.44143105,11.224,-22.401999,10.12,245.21364,1000,1000,1000,1000,0.0,0.0,0.0,0.0,1010.86,25.9,19.917461,41.331158,20.330772,0.41331157,-3.6089334,1.1079389,-1.222779,-3.3497186,0.8369824,-0.2495681,0.12668979,0.0024147937,-0.29077148
15:10:21.386;-0.11492168,-0.45968673,7.8529816,-0.42894423,-0.36880815,-0.44143105,11.224,-22.401999,10.12,245.21364,1000,1000,1000,1000,0.0,0.0,0.0,0.0,1010.86,25.9,19.917461,41.331158,20.330772,0.41331157,-3.6096344,1.0974597,-1.2101953,-3.3497186,0.8369824,-0.25557333,0.12152648,-0.0037652412,-0.29077148
15:10:21.400;-0.15322891,-0.5746084,7.967903,0.120372176,0.24154341,0.65720177,10.948,-22.125998,9.936001,244.7658,1000,1000,1000,1000,0.0,0.0,0.0,0.0,1010.8,25.9,20.416851,41.331158,20.330772,0.41331157,-3.6183882,1.1005648,-1.1884737,-4.1240067,1.0988532,-0.2540085,0.12466654,-0.009503845,0.15707397
15:10:21.415;-0.15322891,-0.5746084,7.967903,0.120372176,0.24154341,0.65720177,10.948,-22.125998,9.936001,244.7658,1000,1000,1000,1000,0.0,0.0,0.0,0.0,1010.8,25.9,20.416851,41.331158,20.330772,0.41331157,-3.626613,1.104318,-1.1512579,-4.1240067,1.0988532,-0.25208256,0.12853123,0.0010113837,0.15707397
15:10:21.430;-0.076614454,-0.61291564,8.0445175,-0.0016981363,-0.0025972128,-0.56350136,10.948,-22.125998,9.936001,244.7658,1000,1000,1000,1000,0.0,0.0,0.0,0.0,1010.8,25.9,20.416851,41.331158,20.330772,0.41331157,-3.6412413,1.0930752,-1.1154304,-4.356778,0.5440808,-0.25210804,0.12849228,0.01086941,0.15707397
15:10:21.448;-0.076614454,-0.61291564,8.0445175,-0.0016981363,-0.0025972128,-0.56350136,10.948,-22.125998,9.936001,244.7658,1000,1000,1000,1000,0.0,0.0,0.0,0.0,1010.8,25.9,20.416851,41.331158,20.330772,0.41331157,-3.655582,1.0820495,-1.0999204,-4.356778,0.5440808,-0.2521386,0.12844554,7.26386E-4,0.15707397
15:10:21.460;-0.19153613,-0.45968673,7.967903,-0.24583876,-0.18570268,-0.13625525,10.948,-22.125998,9.936001,244.7658,1000,1000,1000,1000,0.0,0.0,0.0,0.0,1010.72,25.9,21.085346,38.84299,20.305891,0.3884299,-3.6513796,1.0857197,-1.0814073,-3.3009143,1.374752,-0.2550887,0.1262171,-0.0060356306,0.15707397
15:10:21.473;-0.19153613,-0.45968673,7.967903,-0.24583876,-0.18570268,-0.13625525,10.948,-22.125998,9.936001,244.7658,1000,1000,1000,1000,0.0,0.0,0.0,0.0,1010.72,25.9,21.085346,38.84299,20.305891,0.3884299,-3.6472611,1.0893165,-1.05824,-3.3009143,1.374752,-0.25803876,0.123988666,-0.0076706936,0.15707397
15:10:21.485;-0.19153613,-0.45968673,7.967903,-0.24583876,-0.18570268,-0.13625525,10.948,-22.125998,9.936001,244.7658,1000,1000,1000,1000,0.0,0.0,0.0,0.0,1010.72,25.9,21.085346,38.84299,20.305891,0.3884299,-3.6432252,1.0928414,-1.0356697,-3.3009143,1.374752,-0.26098883,0.121760234,-0.009442012,0.15707397
15:10:21.499;-0.076614454,-0.5363012,8.121132,-0.0016981363,0.1194731,0.96237755,10.948,-22.125998,9.844,244.7658,1000,1000,1000,1000,0.0,0.0,0.0,0.0,1010.86,25.9,19.917461,38.84299,20.305891,0.3884299,-3.6459446,1.0834104,-1.0135506,-3.7780304,0.53933555,-0.2610126,0.12343286,-0.011213331,0.15707397
15:10:21.512;-0.15322891,-0.45968673,8.00621,-0.55101454,-0.307773,-0.7466068,10.948,-22.125998,9.844,244.7658,1000,1000,1000,1000,0.0,0.0,0.0,0.0,1010.86,25.9,19.917461,38.91211,20.306583,0.3891211,-3.6462958,1.0794122,-0.9769344,-3.2855017,1.0946337,-0.26872683,0.11912404,0.0022599557,0.15707397
15:10:21.527;-0.15322891,-0.45968673,8.00621,-0.55101454,-0.307773,-0.7466068,10.948,-22.125998,9.844,244.7658,1000,1000,1000,1000,0.0,0.0,0.0,0.0,1010.86,25.9,19.917461,38.91211,20.306583,0.3891211,-3.64664,1.075494,-0.9644977,-3.2855017,1.0946337,-0.27644104,0.11481522,-0.00819254,0.15707397
15:10:21.542;-0.038307227,-0.5746084,8.082825,0.18140733,0.1194731,0.41306114,11.04,-22.217997,9.752,244.91579,1000,1000,1000,1000,0.0,0.0,0.0,0.0,1010.83997,25.9,20.083923,38.91211,20.306583,0.3891211,-3.652366,1.0611576,-0.9560413,-4.066273,0.2708584,-0.27371994,0.116607316,-0.019391641,0.007080078
15:10:21.558;-0.038307227,-0.5746084,8.082825,0.18140733,0.1194731,0.41306114,11.04,-22.217997,9.752,244.91579,1000,1000,1000,1000,0.0,0.0,0.0,0.0,1010.83997,25.9,20.083923,38.84299,20.305891,0.3884299,-3.6577995,1.0472249,-0.9303021,-4.066273,0.2708584,-0.27081743,0.11851889,-0.012782663,0.007080078
15:10:21.572;-0.076614454,-0.49799395,8.0445175,-0.0016981363,0.058437943,0.5961666,11.04,-22.217997,9.752,244.91579,1000,1000,1000,1000,0.0,0.0,0.0,0.0,1010.83997,25.9,20.083923,38.84299,20.305891,0.3884299,-3.655511,1.0379745,-0.90588725,-3.542201,0.54461515,-0.2708412,0.11933702,-0.006999807,0.007080078
15:10:21.586;-0.076614454,-0.49799395,8.0445175,-0.0016981363,0.058437943,0.5961666,11.04,-22.217997,9.752,244.91579,1000,1000,1000,1000,0.0,0.0,0.0,0.0,1010.89996,25.9,19.584534,38.84299,20.305891,0.3884299,-3.6532698,1.0289663,-0.8788643,-3.542201,0.54461515,-0.2708667,0.12021359,0.0019426919,0.007080078
15:10:21.600;-0.19153613,-0.49799395,8.00621,-0.1848036,-0.124667525,-0.6855717,11.04,-22.125998,9.936001,244.90866,1000,1000,1000,1000,0.0,0.0,0.0,0.0,1010.89996,25.9,19.584534,38.84299,20.305891,0.3884299,-3.653905,1.0340327,-0.8528235,-3.5582514,1.3678086,-0.27345395,0.11846825,0.010289025,0.014205933
15:10:21.616;-0.19153613,-0.49799395,8.00621,-0.1848036,-0.124667525,-0.6855717,11.04,-22.125998,9.936001,244.90866,1000,1000,1000,1000,0.0,0.0,0.0,0.0,1010.89996,25.9,19.584534,38.84299,20.305891,0.3884299,-3.6548893,1.0387534,-0.8462327,-3.5582514,1.3678086,-0.27641082,0.11647357,-6.801225E-4,0.014205933
15:10:21.631;-0.11492168,-0.5363012,8.082825,0.3645128,0.18050826,0.16892053,11.04,-22.125998,9.936001,244.90866,1000,1000,1000,1000,0.0,0.0,0.0,0.0,1010.83997,25.9,20.083923,38.84299,20.305891,0.3884299,-3.6523468,1.0368875,-0.83910185,-3.7956693,0.81279016,-0.27094314,0.11918119,-0.010963697,0.014205933
15:10:21.645;-0.11492168,-0.5363012,8.082825,0.3645128,0.18050826,0.16892053,11.04,-22.125998,9.936001,244.90866,1000,1000,1000,1000,0.0,0.0,0.0,0.0,1010.83997,25.9,20.083923,38.84299,20.305891,0.3884299,-3.6502123,1.0348821,-0.8197181,-3.7956693,0.81279016,-0.26583996,0.12170831,-0.008598809,0.014205933
15:10:21.658;-0.15322891,-0.49799395,8.00621,-0.12376845,-0.0025972128,0.29099083,11.132,-22.217997,9.844,245.05833,1000,1000,1000,1000,0.0,0.0,0.0,0.0,1010.83997,25.9,20.083923,38.91211,20.306583,0.3891211,-3.6499572,1.0360378,-0.80388105,-3.5586169,1.0943217,-0.26744896,0.121674545,-0.0064028422,-0.13546753
15:10:21.672;-0.15322891,-0.49799395,8.00621,-0.12376845,-0.0025972128,0.29099083,11.132,-22.217997,9.844,245.05833,1000,1000,1000,1000,0.0,0.0,0.0,0.0,1010.72,25.9,21.085346,38.91211,20.306583,0.3891211,-3.6498284,1.0371679,-0.78652036,-3.5586169,1.0943217,-0.26918173,0.12163819,-0.0023289705,-0.13546753
15:10:21.688;-0.11492168,-0.5363012,7.967903,-0.1848036,0.24154341,-0.6855717,11.132,-22.217997,9.844,245.05833,1000,1000,1000,1000,0.0,0.0,0.0,0.0,1010.72,25.9,21.085346,38.91211,20.306583,0.3891211,-3.6567342,1.0367011,-0.7689366,-3.8502398,0.824459,-0.2721386,0.12550288,0.002326883,-0.13546753
15:10:21.708;-0.11492168,-0.5363012,7.967903,-0.1848036,0.24154341,-0.6855717,11.132,-22.217997,9.844,245.05833,1000,1000,1000,1000,0.0,0.0,0.0,0.0,1010.72,25.9,21.085346,33.037277,20.247833,0.33037278,-3.6640453,1.0369538,-0.76903254,-3.8502398,0.824459,-0.27564988,0.1300922,-0.010698978,-0.13546753
15:10:21.717;-0.076614454,-0.49799395,8.00621,-0.06273329,-0.124667525,0.53513145,11.132,-22.217997,9.844,245.05833,1000,1000,1000,1000,0.0,0.0,0.0,0.0,1010.89996,25.9,19.584534,33.037277,20.247833,0.33037278,-3.6625612,1.0259372,-0.7630798,-3.5591042,0.54721075,-0.2762772,0.12884553,-0.017554695,-0.13546753
15:10:21.740;-0.076614454,-0.49799395,8.00621,-0.06273329,-0.124667525,0.53513145,11.132,-22.217997,9.844,245.05833,1000,1000,1000,1000,0.0,0.0,0.0,0.0,1010.89996,25.9,19.584534,33.037277,20.247833,0.33037278,-3.661906,1.0135528,-0.7384657,-3.5591042,0.54721075,-0.2777201,0.12597817,-0.005246671,-0.13546753
15:10:21.753;-0.11492168,-0.5363012,8.0445175,0.05933702,0.1194731,-0.25832558,11.132,-22.125998,9.936001,245.05156,1000,1000,1000,1000,0.0,0.0,0.0,0.0,1010.89996,25.9,19.584534,33.106396,20.248526,0.33106396,-3.6642437,1.0110196,-0.71997714,-3.813687,0.816643,-0.27700806,0.12741184,0.0011749067,-0.12869263
15:10:21.766;-0.15322891,-0.45968673,7.967903,-0.1848036,-0.0025972128,0.107885376,11.132,-22.125998,9.936001,245.05156,1000,1000,1000,1000,0.0,0.0,0.0,0.0,1010.74,25.9,20.918882,33.106396,20.248526,0.33106396,-3.6595194,1.0127611,-0.7116957,-3.3012567,1.0998777,-0.27959532,0.12737548,-0.0024416514,-0.12869263
15:10:21.780;-0.15322891,-0.45968673,7.967903,-0.1848036,-0.0025972128,0.107885376,11.132,-22.125998,9.936001,245.05156,1000,1000,1000,1000,0.0,0.0,0.0,0.0,1010.74,25.9,20.918882,33.106396,20.248526,0.33106396,-3.6548898,1.0144678,-0.69855547,-3.3012567,1.0998777,-0.28218257,0.12733912,-9.312561E-4,-0.12869263
15:10:21.794;-0.11492168,-0.5363012,8.082825,0.05933702,0.1194731,0.22995569,11.04,-22.125998,9.844,244.90866,1000,1000,1000,1000,0.0,0.0,0.0,0.0,1010.74,25.9,20.918882,38.84299,20.305891,0.3884299,-3.6568916,1.0120734,-0.6828201,-3.7956693,0.81279016,-0.28135186,0.12901175,5.791392E-4,0.014205933
15:10:21.809;-0.11492168,-0.5363012,8.082825,0.05933702,0.1194731,0.22995569,11.04,-22.125998,9.844,244.90866,1000,1000,1000,1000,0.0,0.0,0.0,0.0,1010.83997,25.9,20.083923,38.84299,20.305891,0.3884299,-3.658795,1.009844,-0.6654992,-3.7956693,0.81279016,-0.28046182,0.13080385,0.0040284744,0.014205933
15:10:21.822;-0.15322891,-0.49799395,7.8912888,-0.12376845,-0.0025972128,-0.6245365,11.04,-22.125998,9.844,244.90866,1000,1000,1000,1000,0.0,0.0,0.0,0.0,1010.83997,25.9,20.083923,38.84299,20.305891,0.3884299,-3.6594017,1.0118178,-0.6489755,-3.6102858,1.1101917,-0.28207082,0.13077009,0.0070178984,0.014205933
15:10:21.836;-0.15322891,-0.49799395,7.8912888,-0.12376845,-0.0025972128,-0.6245365,11.04,-22.125998,9.844,244.90866,1000,1000,1000,1000,0.0,0.0,0.0,0.0,1010.83997,25.9,20.083923,38.91211,20.306583,0.3891211,-3.6601174,1.0137497,-0.6442805,-3.6102858,1.1101917,-0.28380358,0.13073373,-0.0017256131,0.014205933
15:10:21.850;-0.15322891,-0.45968673,8.00621,-0.06273329,0.058437943,0.29099083,11.04,-22.125998,9.844,244.90866,1000,1000,1000,1000,0.0,0.0,0.0,0.0,1010.8,25.9,20.416851,38.91211,20.306583,0.3891211,-3.653486,1.0161692,-0.63967943,-3.2855017,1.0946337,-0.28468186,0.13155186,-0.010469125,0.014205933
15:10:21.865;-0.15322891,-0.45968673,8.00621,-0.06273329,0.058437943,0.29099083,11.04,-22.125998,9.844,244.90866,1000,1000,1000,1000,0.0,0.0,0.0,0.0,1010.8,25.9,20.416851,38.91211,20.306583,0.3891211,-3.6470487,1.0185975,-0.62232417,-3.2855017,1.0946337,-0.28562286,0.13242844,-0.006104262,0.014205933
15:10:21.879;-0.11492168,-0.49799395,7.929596,0.120372176,-0.0025972128,-0.1972904,10.948,-22.033998,9.936001,244.75827,1000,1000,1000,1000,0.0,0.0,0.0,0.0,1010.8,25.9,20.416851,38.91211,20.306583,0.3891211,-3.644438,1.0147661,-0.6028786,-3.5931897,0.82868314,-0.28405803,0.13239467,-0.0023213811,0.16459656
15:10:21.894;-0.11492168,-0.49799395,7.929596,0.120372176,-0.0025972128,-0.1972904,10.948,-22.033998,9.936001,244.75827,1000,1000,1000,1000,0.0,0.0,0.0,0.0,1010.8,25.9,20.416851,33.037277,20.247833,0.33037278,-3.6415255,1.0110036,-0.59062266,-3.5931897,0.82868314,-0.2821321,0.13235311,-0.0054780277,0.16459656
15:10:21.909;-0.19153613,-0.4213795,7.8912888,-0.30687392,-0.124667525,-0.13625525,10.948,-22.033998,9.936001,244.75827,1000,1000,1000,1000,0.0,0.0,0.0,0.0,1010.8,25.9,20.416851,33.037277,20.247833,0.33037278,-3.6340191,1.0168415,-0.57822514,-3.0556822,1.3884239,-0.28642833,0.13060777,-0.0082400935,0.16459656
15:10:21.928;-0.19153613,-0.4213795,7.8912888,-0.30687392,-0.124667525,-0.13625525,10.948,-22.033998,9.936001,244.75827,1000,1000,1000,1000,0.0,0.0,0.0,0.0,1010.8,25.9,20.416851,33.037277,20.247833,0.33037278,-3.628467,1.0218297,-0.5660394,-3.0556822,1.3884239,-0.29256582,0.12811442,-0.010965198,0.16459656
15:10:21.939;-0.19153613,-0.4213795,7.8912888,-0.30687392,-0.124667525,-0.13625525,10.948,-22.033998,9.936001,244.75827,1000,1000,1000,1000,0.0,0.0,0.0,0.0,1010.77997,25.9,20.583313,33.106396,20.248526,0.33106396,-3.6203194,1.0278177,-0.55289555,-3.0556822,1.3884239,-0.29594144,0.12674308,-0.0124640055,0.16459656
15:10:21.952;-0.11492168,-0.49799395,8.0445175,0.24244249,-0.0025972128,0.4740963,10.948,-22.033998,9.844,244.75827,1000,1000,1000,1000,0.0,0.0,0.0,0.0,1010.77997,25.9,20.583313,33.106396,20.248526,0.33106396,-3.6156642,1.0235662,-0.54028165,-3.5420008,0.81689197,-0.2927897,0.12670931,-0.014235323,0.16459656
15:10:21.966;-0.15322891,-0.45968673,7.967903,-0.1848036,-0.18570268,0.16892053,10.948,-22.033998,9.844,244.75827,1000,1000,1000,1000,0.0,0.0,0.0,0.0,1010.77997,25.9,20.583313,33.106396,20.248526,0.33106396,-3.6119115,1.0225446,-0.51967955,-3.3012567,1.0998777,-0.29537696,0.12410948,-0.007597975,0.16459656
15:10:21.982;-0.15322891,-0.45968673,7.967903,-0.1848036,-0.18570268,0.16892053,10.948,-22.033998,9.844,244.75827,1000,1000,1000,1000,0.0,0.0,0.0,0.0,1010.94,25.9,19.248966,33.106396,20.248526,0.33106396,-3.6084151,1.0213615,-0.50351095,-3.3012567,1.0998777,-0.29814902,0.121323936,-0.005064167,0.16459656
15:10:21.995;-0.15322891,-0.5363012,7.967903,0.05933702,0.1194731,-0.1972904,10.948,-22.125998,9.844,244.7658,1000,1000,1000,1000,0.0,0.0,0.0,0.0,1010.94,25.9,19.248966,38.91211,20.306583,0.3891211,-3.6124313,1.0245578,-0.4879817,-3.8499293,1.0992197,-0.2973183,0.12299656,-0.0026992795,0.15707397
15:10:22.010;-0.15322891,-0.5363012,7.967903,0.05933702,0.1194731,-0.1972904,10.948,-22.125998,9.844,244.7658,1000,1000,1000,1000,0.0,0.0,0.0,0.0,1010.94,25.9,19.248966,38.91211,20.306583,0.3891211,-3.616309,1.0278072,-0.4779808,-3.8499293,1.0992197,-0.29642826,0.12478866,-0.0056586354,0.15707397
15:10:22.023;-0.11492168,-0.49799395,8.082825,0.120372176,0.42464888,0.4740963,10.948,-22.125998,9.844,244.7658,1000,1000,1000,1000,0.0,0.0,0.0,0.0,1010.86,25.9,19.917461,38.91211,20.306583,0.3891211,-3.6129546,1.028922,-0.46779323,-3.5252597,0.8130356,-0.29486343,0.13030909,-0.008223411,0.15707397
15:10:22.038;-0.11492168,-0.49799395,8.082825,0.120372176,0.42464888,0.4740963,10.948,-22.125998,9.844,244.7658,1000,1000,1000,1000,0.0,0.0,0.0,0.0,1010.86,25.9,19.917461,38.91211,20.306583,0.3891211,-3.6094313,1.0308466,-0.4483267,-3.5252597,0.8130356,-0.29305786,0.13667883,-0.0011119666,0.15707397
15:10:22.053;-0.11492168,-0.45968673,8.00621,-0.1848036,-0.18570268,-0.31936073,10.948,-22.125998,9.844,244.7658,1000,1000,1000,1000,0.0,0.0,0.0,0.0,1010.86,25.9,19.917461,38.91211,20.306583,0.3891211,-3.6054935,1.0241022,-0.42971414,-3.2857642,0.821019,-0.29564512,0.134079,0.005525382,0.15707397
15:10:22.066;-0.11492168,-0.45968673,8.00621,-0.1848036,-0.18570268,-0.31936073,10.948,-22.125998,9.844,244.7658,1000,1000,1000,1000,0.0,0.0,0.0,0.0,1010.86,25.9,19.917461,38.91211,20.306583,0.3891211,-3.6014535,1.0176747,-0.42204708,-3.2857642,0.821019,-0.29804757,0.13166486,0.001373692,0.15707397
15:10:22.080;-0.15322891,-0.49799395,8.00621,0.05933702,-0.0025972128,-0.13625525,10.948,-22.125998,9.936001,244.7658,1000,1000,1000,1000,0.0,0.0,0.0,0.0,1010.86,25.9,19.917461,38.91211,20.306583,0.3891211,-3.5997245,1.0191694,-0.41515929,-3.5586169,1.0943217,-0.29715753,0.1316259,-0.003416719,0.15707397
15:10:22.094;-0.15322891,-0.49799395,8.00621,0.05933702,-0.0025972128,-0.13625525,10.948,-22.125998,9.936001,244.7658,1000,1000,1000,1000,0.0,0.0,0.0,0.0,1010.86,25.9,19.917461,53.702854,20.45449,0.53702855,-3.5981464,1.0206394,-0.40545055,-3.5586169,1.0943217,-0.29638615,0.13159214,-0.005188037,0.15707397
15:10:22.108;-0.11492168,-0.49799395,8.00621,0.05933702,-0.0025972128,0.352026,10.948,-22.125998,9.936001,244.7658,1000,1000,1000,1000,0.0,0.0,0.0,0.0,1010.86,25.9,19.917461,53.702854,20.45449,0.53702855,-3.5965476,1.0166067,-0.39606953,-3.558901,0.8207849,-0.29555544,0.13155578,-0.0070956107,0.15707397
15:10:22.122;-0.11492168,-0.49799395,8.00621,0.05933702,-0.0025972128,0.352026,10.948,-22.125998,9.936001,244.7658,1000,1000,1000,1000,0.0,0.0,0.0,0.0,1010.86,25.9,19.917461,53.702854,20.45449,0.53702855,-3.5949225,1.012652,-0.3798319,-3.558901,0.8207849,-0.2946654,0.13151683,-0.0018152213,0.15707397
15:10:22.136;-0.076614454,-0.5363012,8.0445175,-0.06273329,-0.0025972128,-0.56350136,12.42,-22.31,8.832,247.05846,1000,1000,1000,1000,0.0,0.0,0.0,0.0,1010.86,25.9,19.917461,56.191017,20.479372,0.56191015,-3.600163,1.0032524,-0.41011727,-3.8139026,0.54444915,-0.29554367,0.13148047,0.0031131427,-2.1355896
15:10:22.150;-0.076614454,-0.5363012,8.0445175,-0.06273329,-0.0025972128,-0.56350136,12.42,-22.31,8.832,247.05846,1000,1000,1000,1000,0.0,0.0,0.0,0.0,1010.89996,25.9,19.584534,56.191017,20.479372,0.56191015,-3.6052985,0.9940407,-0.45235795,-3.8139026,0.54444915,-0.29642195,0.13144411,-0.0047758766,-2.1355896
15:10:22.164;-0.15322891,-0.45968673,7.967903,-0.06273329,-0.0025972128,0.53513145,12.42,-22.31,8.832,247.05846,1000,1000,1000,1000,0.0,0.0,0.0,0.0,1010.89996,25.9,19.584534,56.191017,20.479372,0.56191015,-3.6000783,0.9961218,-0.4937538,-3.3012567,1.0998777,-0.29730022,0.13140775,-0.0126648955,-2.1355896
15:10:22.178;-0.15322891,-0.45968673,7.967903,-0.06273329,-0.0025972128,0.53513145,12.42,-22.31,8.832,247.05846,1000,1000,1000,1000,0.0,0.0,0.0,0.0,1010.89996,25.9,19.584534,53.771976,20.455181,0.5377198,-3.5949626,0.99816126,-0.5192485,-3.3012567,1.0998777,-0.2981785,0.1313714,-0.005173055,-2.1355896
15:10:22.192;-0.11492168,-0.5746084,8.00621,0.120372176,0.24154341,-0.07522009,12.236,-22.401999,8.832,246.77596,1000,1000,1000,1000,0.0,0.0,0.0,0.0,1010.89996,25.9,19.584534,53.771976,20.455181,0.5377198,-3.6035054,0.9979172,-0.5385833,-4.104677,0.8202614,-0.2964933,0.134753,0.0023187855,-1.8530884
15:10:22.206;-0.11492168,-0.5746084,8.00621,0.120372176,0.24154341,-0.07522009,12.236,-22.401999,8.832,246.77596,1000,1000,1000,1000,0.0,0.0,0.0,0.0,1010.89996,25.9,19.584534,53.771976,20.455181,0.5377198,-3.6118774,0.99767804,-0.5659054,-4.104677,0.8202614,-0.2948081,0.13813461,0.0012657042,-1.8530884
15:10:22.220;-0.15322891,-0.49799395,7.8529816,-0.30687392,-0.06363237,-0.1972904,12.236,-22.401999,8.832,246.77596,1000,1000,1000,1000,0.0,0.0,0.0,0.0,1010.89996,25.9,19.584534,53.771976,20.455181,0.5377198,-3.6164072,0.99916315,-0.59268105,-3.6278434,1.1155843,-0.29910433,0.13724376,2.126228E-4,-1.8530884
15:10:22.235;-0.15322891,-0.49799395,7.8529816,-0.30687392,-0.06363237,-0.1972904,12.236,-22.401999,8.832,246.77596,1000,1000,1000,1000,0.0,0.0,0.0,0.0,1010.8,25.9,20.416851,56.191017,20.479372,0.56191015,-3.621147,1.0005561,-0.62078935,-3.6278434,1.1155843,-0.30370745,0.13628928,-0.0027467331,-1.8530884
15:10:22.250;-0.11492168,-0.49799395,8.0445175,0.120372176,0.18050826,0.22995569,12.236,-22.401999,8.832,246.77596,1000,1000,1000,1000,0.0,0.0,0.0,0.0,1010.8,25.9,20.416851,56.191017,20.479372,0.56191015,-3.6177945,0.9995363,-0.6483355,-3.5420008,0.81689197,-0.30190188,0.13899691,-0.005706089,-1.8530884
15:10:22.264;-0.11492168,-0.49799395,8.0445175,0.120372176,0.18050826,0.22995569,12.236,-22.401999,8.832,246.77596,1000,1000,1000,1000,0.0,0.0,0.0,0.0,1010.8,25.9,20.416851,56.191017,20.479372,0.56191015,-3.6146271,0.99836,-0.6692756,-3.5420008,0.81689197,-0.30021667,0.14152403,-0.0024867093,-1.8530884
15:10:22.282;-0.11492168,-0.49799395,8.0445175,0.120372176,0.18050826,0.22995569,12.236,-22.401999,8.832,246.77596,1000,1000,1000,1000,0.0,0.0,0.0,0.0,1010.83997,25.9,20.083923,61.167347,20.529135,0.6116735,-3.611051,0.99791473,-0.6888954,-3.5420008,0.81689197,-0.29805,0.14477319,0.0016524929,-1.8530884
15:10:22.294;-0.15322891,-0.49799395,7.967903,-0.0016981363,-0.06363237,-0.014184937,12.236,-22.31,8.740001,246.77347,1000,1000,1000,1000,0.0,0.0,0.0,0.0,1010.83997,25.9,20.083923,61.167347,20.529135,0.6116735,-3.6103635,0.99919933,-0.7094252,-3.575675,1.0995612,-0.29807037,0.14400959,0.004411961,-1.8506012
15:10:22.310;-0.15322891,-0.49799395,7.929596,-0.12376845,-0.06363237,-0.13625525,12.236,-22.31,8.740001,246.77347,1000,1000,1000,1000,0.0,0.0,0.0,0.0,1010.83997,25.9,20.083923,61.167347,20.529135,0.6116735,-3.611955,1.0003146,-0.7324711,-3.5928972,1.1048509,-0.30005068,0.14299147,0.004185002,-1.8506012
15:10:22.327;-0.15322891,-0.49799395,7.929596,-0.12376845,-0.06363237,-0.13625525,12.236,-22.31,8.740001,246.77347,1000,1000,1000,1000,0.0,0.0,0.0,0.0,1010.86,25.9,19.917461,33.037277,20.247833,0.33037278,-3.6135144,1.0014076,-0.75697017,-3.5928972,1.1048509,-0.30203098,0.14197335,0.0020049177,-1.8506012
15:10:22.342;-0.15322891,-0.5363012,8.0445175,-0.12376845,0.18050826,0.29099083,12.236,-22.31,8.740001,246.77347,1000,1000,1000,1000,0.0,0.0,0.0,0.0,1010.86,25.9,19.917461,33.037277,20.247833,0.33037278,-3.6194527,1.0059859,-0.7809793,-3.8133852,1.0888,-0.3040113,0.14486147,-1.7516641E-4,-1.8506012
15:10:22.354;-0.15322891,-0.5363012,8.0445175,-0.12376845,0.18050826,0.29099083,12.236,-22.31,8.740001,246.77347,1000,1000,1000,1000,0.0,0.0,0.0,0.0,1010.86,25.9,19.917461,33.037277,20.247833,0.33037278,-3.6247869,1.009765,-0.79894966,-3.8133852,1.0888,-0.3054965,0.14702757,0.0033167235,-1.8506012
15:10:22.369;-0.11492168,-0.49799395,8.0445175,0.120372176,0.1194731,0.107885376,12.236,-22.31,8.740001,246.77347,1000,1000,1000,1000,0.0,0.0,0.0,0.0,1010.77997,25.9,20.583313,33.037277,20.247833,0.33037278,-3.6213617,1.0076638,-0.8157051,-3.5420008,0.81689197,-0.30369094,0.14881967,0.007681586,-1.8506012
15:10:22.385;-0.11492168,-0.49799395,8.0445175,0.120372176,0.1194731,0.107885376,12.236,-22.31,8.740001,246.77347,1000,1000,1000,1000,0.0,0.0,0.0,0.0,1010.77997,25.9,20.583313,23.15374,20.148998,0.2315374,-3.617887,1.0057217,-0.8347114,-3.5420008,0.81689197,-0.301765,0.15073124,0.009407752,-1.8506012
15:10:22.398;-0.11492168,-0.49799395,8.0445175,0.120372176,0.1194731,0.107885376,12.236,-22.31,8.740001,246.77347,1000,1000,1000,1000,0.0,0.0,0.0,0.0,1010.77997,25.9,20.583313,23.15374,20.148998,0.2315374,-3.6148357,1.0034672,-0.8536547,-3.5420008,0.81689197,-0.30020016,0.15228438,0.010810262,-1.8506012
15:10:22.410;-0.15322891,-0.49799395,7.967903,0.120372176,-0.124667525,-0.31936073,12.236,-22.31,8.740001,246.77347,1000,1000,1000,1000,0.0,0.0,0.0,0.0,1010.86,25.9,19.917461,23.15374,20.148998,0.2315374,-3.6126368,1.003923,-0.8723249,-3.575675,1.0995612,-0.2987557,0.15078837,0.012104886,-1.8506012
15:10:22.425;-0.11492168,-0.49799395,8.00621,-0.06273329,-0.0025972128,0.22995569,12.236,-22.31,8.740001,246.77347,1000,1000,1000,1000,0.0,0.0,0.0,0.0,1010.86,25.9,19.917461,30.61823,20.223644,0.3061823,-3.612423,1.0002247,-0.896272,-3.558901,0.8207849,-0.29963398,0.15075201,0.007633835,-1.8506012
15:10:22.439;-0.11492168,-0.49799395,8.00621,-0.06273329,-0.0025972128,0.22995569,12.236,-22.31,8.740001,246.77347,1000,1000,1000,1000,0.0,0.0,0.0,0.0,1010.86,25.9,19.917461,30.61823,20.223644,0.3061823,-3.6122134,0.9966003,-0.9122036,-3.558901,0.8207849,-0.30051225,0.15071565,0.010853215,-1.8506012
15:10:22.452;-0.15322891,-0.49799395,8.0445175,-0.12376845,-0.124667525,-0.1972904,12.236,-22.31,8.832,246.77347,1000,1000,1000,1000,0.0,0.0,0.0,0.0,1010.83997,25.9,20.083923,30.61823,20.223644,0.3061823,-3.6125019,0.99674046,-0.92781657,-3.5417204,1.0891318,-0.30224502,0.1489703,0.014072595,-1.8506012
15:10:22.466;-0.15322891,-0.49799395,8.0445175,-0.12376845,-0.124667525,-0.1972904,12.236,-22.31,8.832,246.77347,1000,1000,1000,1000,0.0,0.0,0.0,0.0,1010.83997,25.9,20.083923,23.222857,20.14969,0.23222856,-3.6127844,0.99687785,-0.9489791,-3.5417204,1.0891318,-0.3039778,0.14722496,0.011310529,-1.8506012
15:10:22.481;-0.11492168,-0.49799395,8.00621,0.120372176,-0.0025972128,0.107885376,12.236,-22.31,8.832,246.77347,1000,1000,1000,1000,0.0,0.0,0.0,0.0,1010.83997,25.9,20.083923,23.222857,20.14969,0.23222856,-3.6099372,0.9933178,-0.9699117,-3.558901,0.8207849,-0.3021722,0.14718601,0.008351173,-1.8506012
15:10:22.494;-0.11492168,-0.49799395,8.00621,0.120372176,-0.0025972128,0.107885376,12.236,-22.31,8.832,246.77347,1000,1000,1000,1000,0.0,0.0,0.0,0.0,1010.8,25.9,20.416851,23.222857,20.14969,0.23222856,-3.607383,0.989834,-0.98615104,-3.558901,0.8207849,-0.30060738,0.14715225,0.009753684,-1.8506012
15:10:22.509;-0.15322891,-0.45968673,7.967903,-0.0016981363,-0.24673784,0.16892053,12.236,-22.31,8.832,246.77347,1000,1000,1000,1000,0.0,0.0,0.0,0.0,1010.8,25.9,20.416851,23.222857,20.14969,0.23222856,-3.6012855,0.9884078,-1.0018542,-3.3012567,1.0998777,-0.30063286,0.14345118,0.011371965,-1.8506012
15:10:22.523;-0.15322891,-0.45968673,7.967903,-0.0016981363,-0.24673784,0.16892053,12.236,-22.31,8.832,246.77347,1000,1000,1000,1000,0.0,0.0,0.0,0.0,1010.8,25.9,20.416851,23.222857,20.14969,0.23222856,-3.5953083,0.98725194,-1.0165116,-3.3012567,1.0998777,-0.30065665,0.13999686,0.013736852,-1.8506012
15:10:22.537;-0.15322891,-0.49799395,8.00621,0.05933702,0.058437943,-0.3803959,12.328,-22.31,8.740001,246.91597,1000,1000,1000,1000,0.0,0.0,0.0,0.0,1010.83997,25.9,20.083923,33.037277,20.247833,0.33037278,-3.5938187,0.9901379,-1.0338913,-3.5586169,1.0943217,-0.29988527,0.14075655,0.015932819,-1.993103
15:10:22.551;-0.15322891,-0.49799395,8.00621,0.05933702,0.058437943,-0.3803959,12.328,-22.31,8.740001,246.91597,1000,1000,1000,1000,0.0,0.0,0.0,0.0,1010.83997,25.9,20.083923,33.037277,20.247833,0.33037278,-3.5922425,0.99308056,-1.0586674,-3.5586169,1.0943217,-0.29899523,0.14163312,0.010226881,-1.993103
15:10:22.565;-0.11492168,-0.49799395,8.00621,-0.12376845,-0.06363237,0.22995569,12.328,-22.31,8.740001,246.91597,1000,1000,1000,1000,0.0,0.0,0.0,0.0,1010.83997,25.9,20.083923,33.037277,20.247833,0.33037278,-3.5932739,0.9887616,-1.0825752,-3.558901,0.8207849,-0.300728,0.14074227,0.0049013384,-1.993103
15:10:22.579;-0.11492168,-0.49799395,8.00621,-0.12376845,-0.06363237,0.22995569,12.328,-22.31,8.740001,246.91597,1000,1000,1000,1000,0.0,0.0,0.0,0.0,1010.83997,25.9,20.083923,30.61823,20.223644,0.3061823,-3.5942845,0.984529,-1.0976307,-3.558901,0.8207849,-0.30246076,0.13985142,0.008120718,-1.993103
15:10:22.593;-0.11492168,-0.49799395,8.082825,0.120372176,0.058437943,0.16892053,12.328,-22.31,8.924,246.91597,1000,1000,1000,1000,0.0,0.0,0.0,0.0,1010.83997,25.9,20.083923,30.61823,20.223644,0.3061823,-3.5912526,0.98190093,-1.1123852,-3.5252597,0.8130356,-0.30077556,0.14066955,0.011340098,-1.993103
15:10:22.607;-0.11492168,-0.49799395,8.082825,0.120372176,0.058437943,0.16892053,12.328,-22.31,8.924,246.91597,1000,1000,1000,1000,0.0,0.0,0.0,0.0,1010.83997,25.9,20.083923,33.037277,20.247833,0.33037278,-3.5882814,0.9793254,-1.127682,-3.5252597,0.8130356,-0.29909036,0.14148769,0.013704986,-1.993103
15:10:22.621;-0.15322891,-0.45968673,7.929596,-0.24583876,-0.06363237,-0.1972904,12.328,-22.31,8.924,246.91597,1000,1000,1000,1000,0.0,0.0,0.0,0.0,1010.83997,25.9,20.083923,33.037277,20.247833,0.33037278,-3.5862322,0.9809693,-1.1426728,-3.3171632,1.105172,-0.3025321,0.14059684,0.016069874,-1.993103
15:10:22.635;-0.15322891,-0.45968673,7.929596,-0.24583876,-0.06363237,-0.1972904,12.328,-22.31,8.924,246.91597,1000,1000,1000,1000,0.0,0.0,0.0,0.0,1010.77997,25.9,20.583313,33.037277,20.247833,0.33037278,-3.584224,0.98258036,-1.1623882,-3.3171632,1.105172,-0.30597386,0.13970599,0.013307808,-1.993103
15:10:22.649;-0.15322891,-0.49799395,8.00621,-0.06273329,0.24154341,0.107885376,12.144,-22.401999,8.924,246.63382,1000,1000,1000,1000,0.0,0.0,0.0,0.0,1010.77997,25.9,20.583313,33.037277,20.247833,0.33037278,-3.5845726,0.98812914,-1.1760663,-3.5586169,1.0943217,-0.30685213,0.1430876,0.010545742,-1.7109528
15:10:22.665;-0.15322891,-0.49799395,8.00621,-0.06273329,0.24154341,0.107885376,12.144,-22.401999,8.924,246.63382,1000,1000,1000,1000,0.0,0.0,0.0,0.0,1010.77997,25.9,20.583313,33.037277,20.247833,0.33037278,-3.585037,0.99404037,-1.1850724,-3.5586169,1.0943217,-0.30785587,0.14695229,0.012271908,-1.7109528
15:10:22.678;-0.076614454,-0.45968673,8.00621,-0.12376845,-0.0025972128,-0.07522009,12.144,-22.401999,8.924,246.63382,1000,1000,1000,1000,0.0,0.0,0.0,0.0,1010.8,25.9,20.416851,23.222857,20.14969,0.23222856,-3.5806322,0.98507386,-1.1942155,-3.2859519,0.5473668,-0.30946487,0.14691852,0.0136744175,-1.7109528
15:10:22.693;-0.076614454,-0.45968673,8.00621,-0.12376845,-0.0025972128,-0.07522009,12.144,-22.401999,8.924,246.63382,1000,1000,1000,1000,0.0,0.0,0.0,0.0,1010.8,25.9,20.416851,23.222857,20.14969,0.23222856,-3.5765579,0.9762815,-1.205656,-3.2859519,0.5473668,-0.3113214,0.14687957,0.0125461165,-1.7109528
15:10:22.707;-0.11492168,-0.49799395,7.967903,-0.06273329,0.1194731,0.04685022,12.144,-22.401999,8.924,246.63382,1000,1000,1000,1000,0.0,0.0,0.0,0.0,1010.8,25.9,20.416851,30.61823,20.223644,0.3061823,-3.5774066,0.97488934,-1.216794,-3.5759635,0.8247152,-0.31219968,0.1485522,0.011493035,-1.7109528
15:10:22.720;-0.11492168,-0.49799395,7.967903,-0.06273329,0.1194731,0.04685022,12.144,-22.401999,8.924,246.63382,1000,1000,1000,1000,0.0,0.0,0.0,0.0,1010.86,25.9,19.917461,30.61823,20.223644,0.3061823,-3.578177,0.973408,-1.2260803,-3.5759635,0.8247152,-0.31301522,0.15010534,0.012102088,-1.7109528
15:10:22.734;-0.076614454,-0.5363012,8.0445175,0.18140733,-0.0025972128,0.22995569,12.236,-22.401999,8.832,246.77596,1000,1000,1000,1000,0.0,0.0,0.0,0.0,1010.86,25.9,19.917461,30.61823,20.223644,0.3061823,-3.5804026,0.9647932,-1.2379776,-3.8139026,0.54444915,-0.31047553,0.15006898,0.012757991,-1.8530884
15:10:22.748;-0.076614454,-0.5363012,8.0445175,0.18140733,-0.0025972128,0.22995569,12.236,-22.401999,8.832,246.77596,1000,1000,1000,1000,0.0,0.0,0.0,0.0,1010.86,25.9,19.917461,30.61823,20.223644,0.3061823,-3.5825837,0.95635074,-1.2471248,-3.8139026,0.54444915,-0.30793583,0.15003262,0.015977371,-1.8530884
15:10:22.762;-0.19153613,-0.49799395,7.967903,-0.1848036,-0.24673784,-0.07522009,12.236,-22.401999,8.832,246.77596,1000,1000,1000,1000,0.0,0.0,0.0,0.0,1010.72,25.9,21.085346,30.61823,20.223644,0.3061823,-3.5849736,0.9613256,-1.256089,-3.5753043,1.3743565,-0.3105231,0.1465783,0.01919675,-1.8530884
15:10:22.776;-0.19153613,-0.49799395,7.967903,-0.1848036,-0.24673784,-0.07522009,12.236,-22.401999,8.832,246.77596,1000,1000,1000,1000,0.0,0.0,0.0,0.0,1010.72,25.9,21.085346,30.61823,20.223644,0.3061823,-3.5873158,0.96620095,-1.269061,-3.5753043,1.3743565,-0.31311035,0.14312397,0.018143669,-1.8530884
15:10:22.791;-0.19153613,-0.49799395,8.082825,0.05933702,0.18050826,0.22995569,12.328,-22.31,8.832,246.91597,1000,1000,1000,1000,0.0,0.0,0.0,0.0,1010.72,25.9,21.085346,30.61823,20.223644,0.3061823,-3.585248,0.97645146,-1.2846476,-3.5246284,1.3548976,-0.31227964,0.14565109,0.017015368,-1.993103
15:10:22.805;-0.19153613,-0.49799395,8.082825,0.05933702,0.18050826,0.22995569,12.328,-22.31,8.832,246.91597,1000,1000,1000,1000,0.0,0.0,0.0,0.0,1010.86,25.9,19.917461,30.61823,20.223644,0.3061823,-3.5831635,0.98667383,-1.2956617,-3.5246284,1.3548976,-0.3113896,0.14835872,0.020234747,-1.993103
15:10:22.819;-0.19153613,-0.49799395,7.967903,-0.12376845,-0.4298433,-0.014184937,12.328,-22.31,8.832,246.91597,1000,1000,1000,1000,0.0,0.0,0.0,0.0,1010.86,25.9,19.917461,30.61823,20.223644,0.3061823,-3.5845833,0.9889513,-1.3066809,-3.5753043,1.3743565,-0.3129986,0.14277075,0.023224171,-1.993103
15:10:22.833;-0.19153613,-0.49799395,7.967903,-0.12376845,-0.4298433,-0.014184937,12.328,-22.31,8.832,246.91597,1000,1000,1000,1000,0.0,0.0,0.0,0.0,1010.86,25.9,19.917461,30.61823,20.223644,0.3061823,-3.5860958,0.990762,-1.3206179,-3.5753043,1.3743565,-0.31473136,0.13675295,0.023011398,-1.993103
15:10:22.847;-0.076614454,-0.5363012,8.00621,-0.0016981363,-0.0025972128,-0.07522009,11.04,-22.31,9.844,244.92287,1000,1000,1000,1000,0.0,0.0,0.0,0.0,1010.8,25.9,20.416851,30.61823,20.223644,0.3061823,-3.5910408,0.98184943,-1.2944002,-3.832095,0.54704237,-0.31475684,0.136714,0.022812808,0.0
15:10:22.861;-0.076614454,-0.5363012,8.00621,-0.0016981363,-0.0025972128,-0.07522009,11.04,-22.31,9.844,244.92287,1000,1000,1000,1000,0.0,0.0,0.0,0.0,1010.8,25.9,20.416851,30.61823,20.223644,0.3061823,-3.5958853,0.9731177,-1.2695442,-3.832095,0.54704237,-0.31478062,0.13667764,0.021759726,0.0
15:10:22.875;-0.19153613,-0.45968673,8.00621,-0.12376845,-0.0025972128,-0.014184937,11.04,-22.31,9.844,244.92287,1000,1000,1000,1000,0.0,0.0,0.0,0.0,1010.8,25.9,20.416851,30.61823,20.223644,0.3061823,-3.591369,0.9809837,-1.2451854,-3.285164,1.3681985,-0.3165134,0.13664128,0.020706644,0.0
15:10:22.890;-0.19153613,-0.45968673,8.00621,-0.12376845,-0.0025972128,-0.014184937,11.04,-22.31,9.844,244.92287,1000,1000,1000,1000,0.0,0.0,0.0,0.0,1010.74,25.9,20.918882,30.61823,20.223644,0.3061823,-3.586943,0.98869234,-1.2204763,-3.285164,1.3681985,-0.31824616,0.13660492,0.020508055,0.0
15:10:22.904;-0.19153613,-0.49799395,8.082825,-0.0016981363,0.1194731,0.107885376,11.04,-22.31,9.844,244.92287,1000,1000,1000,1000,0.0,0.0,0.0,0.0,1010.74,25.9,20.918882,30.61823,20.223644,0.3061823,-3.5857217,0.9977727,-1.1962754,-3.5246284,1.3548976,-0.31827164,0.13839702,0.020295281,0.0
15:10:22.919;-0.19153613,-0.49799395,8.082825,-0.0016981363,0.1194731,0.107885376,11.04,-22.31,9.844,244.92287,1000,1000,1000,1000,0.0,0.0,0.0,0.0,1010.74,25.9,20.918882,30.549114,20.222952,0.30549115,-3.5845249,1.0066714,-1.170764,-3.5246284,1.3548976,-0.31829712,0.14018913,0.021913562,0.0
15:10:22.934;-0.11492168,-0.5363012,8.00621,0.05933702,0.1194731,-0.25832558,11.132,-22.31,9.844,245.06506,1000,1000,1000,1000,0.0,0.0,0.0,0.0,1010.89996,25.9,19.584534,30.549114,20.222952,0.30549115,-3.5885997,1.0047048,-1.1486068,-3.8318763,0.82053244,-0.31740707,0.14198123,0.023531843,-0.14219666
15:10:22.946;-0.11492168,-0.5363012,8.00621,0.05933702,0.1194731,-0.25832558,11.132,-22.31,9.844,245.06506,1000,1000,1000,1000,0.0,0.0,0.0,0.0,1010.89996,25.9,19.584534,30.549114,20.222952,0.30549115,-3.5927672,1.0024264,-1.1315166,-3.8318763,0.82053244,-0.31669503,0.1434149,0.020431936,-0.14219666
15:10:22.961;-0.15322891,-0.5363012,8.0445175,0.18140733,0.058437943,0.04685022,11.132,-22.31,9.844,245.06506,1000,1000,1000,1000,0.0,0.0,0.0,0.0,1010.89996,25.9,19.584534,30.61823,20.223644,0.3061823,-3.594513,1.0050129,-1.1155276,-3.8133852,1.0888,-0.31397393,0.14429148,0.016557053,-0.14219666
15:10:22.975;-0.15322891,-0.5363012,8.0445175,0.18140733,0.058437943,0.04685022,11.132,-22.31,9.844,245.06506,1000,1000,1000,1000,0.0,0.0,0.0,0.0,1010.86,25.9,19.917461,30.61823,20.223644,0.3061823,-3.5964017,1.0074904,-1.0954183,-3.8133852,1.0888,-0.31143424,0.14510961,0.017212955,-0.14219666
15:10:22.990;-0.19153613,-0.49799395,8.00621,-0.1848036,-0.0025972128,0.04685022,11.04,-22.401999,9.936001,244.92993,1000,1000,1000,1000,0.0,0.0,0.0,0.0,1010.86,25.9,19.917461,30.61823,20.223644,0.3061823,-3.5983553,1.0146586,-1.0729625,-3.5582514,1.3678086,-0.3142063,0.14507066,0.017915709,-0.0070648193
15:10:23.004;-0.19153613,-0.49799395,8.00621,-0.1848036,-0.0025972128,0.04685022,11.04,-22.401999,9.936001,244.92993,1000,1000,1000,1000,0.0,0.0,0.0,0.0,1010.86,25.9,19.917461,30.61823,20.223644,0.3061823,-3.6000886,1.021686,-1.0510018,-3.5582514,1.3678086,-0.31679356,0.1450343,0.018571611,-0.0070648193
15:10:23.020;-0.19153613,-0.49799395,8.00621,-0.1848036,-0.0025972128,0.04685022,11.04,-22.401999,9.936001,244.92993,1000,1000,1000,1000,0.0,0.0,0.0,0.0,1010.8,25.9,20.416851,30.61823,20.223644,0.3061823,-3.6021495,1.0285677,-1.0293884,-3.5582514,1.3678086,-0.31975043,0.14499274,0.019321214,-0.0070648193
15:10:23.043;-0.19153613,-0.4213795,8.00621,-0.12376845,-0.06363237,-0.014184937,11.04,-22.401999,9.936001,244.92993,1000,1000,1000,1000,0.0,0.0,0.0,0.0,1010.8,25.9,20.416851,30.61823,20.223644,0.3061823,-3.5930138,1.0339956,-1.0079318,-3.0119274,1.3685576,-0.32247335,0.14359282,0.020351918,-0.0070648193
15:10:23.059;-0.19153613,-0.4213795,8.00621,-0.12376845,-0.06363237,-0.014184937,11.04,-22.401999,9.936001,244.92993,1000,1000,1000,1000,0.0,0.0,0.0,0.0,1010.8,25.9,20.416851,30.61823,20.223644,0.3061823,-3.5834541,1.0396268,-0.9881509,-3.0119274,1.3685576,-0.32457742,0.14251107,0.020110775,-0.0070648193
15:10:23.063;-0.076614454,-0.5746084,8.0445175,-0.0016981363,0.058437943,0.29099083,11.04,-22.31,9.844,244.92287,1000,1000,1000,1000,0.0,0.0,0.0,0.0,1010.8,25.9,20.416851,30.549114,20.222952,0.30549115,-3.5935004,1.0299488,-0.9684435,-4.085432,0.544271,-0.32458422,0.14274482,0.020054035,0.0
15:10:23.079;-0.076614454,-0.5746084,8.0445175,-0.0016981363,0.058437943,0.29099083,11.04,-22.31,9.844,244.92287,1000,1000,1000,1000,0.0,0.0,0.0,0.0,1010.77997,25.9,20.583313,30.549114,20.222952,0.30549115,-3.6033657,1.0211515,-0.94451195,-4.085432,0.544271,-0.3246114,0.14367983,0.024709888,0.0
15:10:23.092;-0.11492168,-0.49799395,8.00621,0.120372176,-0.06363237,0.22995569,11.04,-22.31,9.844,244.92287,1000,1000,1000,1000,0.0,0.0,0.0,0.0,1010.77997,25.9,20.583313,30.549114,20.222952,0.30549115,-3.6009429,1.0163336,-0.9219145,-3.558901,0.8207849,-0.32304657,0.1428526,0.02849277,0.0
15:10:23.106;-0.11492168,-0.49799395,8.00621,0.120372176,-0.06363237,0.22995569,11.04,-22.31,9.844,244.92287,1000,1000,1000,1000,0.0,0.0,0.0,0.0,1010.77997,25.9,20.583313,30.549114,20.222952,0.30549115,-3.5984507,1.0115496,-0.90032125,-3.558901,0.8207849,-0.32136136,0.14196175,0.03171215,0.0
15:10:23.120;-0.038307227,-0.4213795,8.0445175,0.05933702,0.058437943,-0.1972904,11.132,-22.31,9.936001,245.06506,1000,1000,1000,1000,0.0,0.0,0.0,0.0,1010.77997,25.9,20.583313,30.549114,20.222952,0.30549115,-3.5856946,0.9975124,-0.88222915,-2.9984334,0.27246147,-0.32059,0.14272144,0.03470157,-0.14219666
15:10:23.134;-0.038307227,-0.4213795,8.0445175,0.05933702,0.058437943,-0.1972904,11.132,-22.31,9.936001,245.06506,1000,1000,1000,1000,0.0,0.0,0.0,0.0,1010.77997,25.9,20.583313,30.549114,20.222952,0.30549115,-3.5731354,0.98381317,-0.87013537,-2.9984334,0.27246147,-0.31975928,0.14353958,0.031939507,-0.14219666
15:10:23.148;-0.11492168,-0.49799395,8.0445175,0.120372176,-0.06363237,-0.07522009,11.132,-22.31,9.936001,245.06506,1000,1000,1000,1000,0.0,0.0,0.0,0.0,1010.77997,25.9,20.583313,30.549114,20.222952,0.30549115,-3.570743,0.97953933,-0.85847676,-3.5420008,0.81689197,-0.3179537,0.1425851,0.02898015,-0.14219666
15:10:23.162;-0.11492168,-0.49799395,8.0445175,0.120372176,-0.06363237,-0.07522009,11.132,-22.31,9.936001,245.06506,1000,1000,1000,1000,0.0,0.0,0.0,0.0,1010.83997,26.0,20.083923,30.61823,20.223644,0.3061823,-3.5685167,0.9754133,-0.8451832,-3.5420008,0.81689197,-0.3162685,0.14169425,0.027927069,-0.14219666
15:10:23.176;-0.2681506,-0.61291564,8.00621,0.05933702,0.058437943,-0.25832558,11.132,-22.31,9.936001,245.06506,1000,1000,1000,1000,0.0,0.0,0.0,0.0,1010.83997,26.0,20.083923,30.61823,20.223644,0.3061823,-3.5838964,0.9949033,-0.8320818,-4.375297,1.912688,-0.31549713,0.14245394,0.026949208,-0.14219666
15:10:23.191;-0.2681506,-0.61291564,8.00621,0.05933702,0.058437943,-0.25832558,11.132,-22.31,9.936001,245.06506,1000,1000,1000,1000,0.0,0.0,0.0,0.0,1010.83997,26.0,20.083923,30.61823,20.223644,0.3061823,-3.598794,1.0141753,-0.82233465,-4.375297,1.912688,-0.31454775,0.14338894,0.022815999,-0.14219666
15:10:23.204;-0.19153613,-0.4213795,8.0445175,-0.24583876,0.18050826,0.22995569,11.04,-22.217997,9.936001,244.91579,1000,1000,1000,1000,0.0,0.0,0.0,0.0,1010.83997,25.9,20.083923,30.549114,20.222952,0.30549115,-3.5899024,1.0234327,-0.80903745,-2.9976192,1.3620609,-0.31774366,0.14573555,0.019457767,0.007080078
15:10:23.219;-0.19153613,-0.4213795,8.0445175,-0.24583876,0.18050826,0.22995569,11.04,-22.217997,9.936001,244.91579,1000,1000,1000,1000,0.0,0.0,0.0,0.0,1010.83997,25.9,20.083923,30.549114,20.222952,0.30549115,-3.5816705,1.0328587,-0.7893348,-2.9976192,1.3620609,-0.32143125,0.14844318,0.022907102,0.007080078
15:10:23.232;-0.076614454,-0.4213795,7.967903,0.120372176,0.30257857,-0.07522009,11.04,-22.217997,9.936001,244.91579,1000,1000,1000,1000,0.0,0.0,0.0,0.0,1010.83997,25.9,20.083923,30.549114,20.222952,0.30549115,-3.5690458,1.0270591,-0.7704769,-3.0271056,0.55013525,-0.31986642,0.1523767,0.025896527,0.007080078
15:10:23.246;-0.076614454,-0.4213795,7.967903,0.120372176,0.30257857,-0.07522009,11.04,-22.217997,9.936001,244.91579,1000,1000,1000,1000,0.0,0.0,0.0,0.0,1010.83997,25.9,20.083923,30.549114,20.222952,0.30549115,-3.5565555,1.021672,-0.7559578,-3.0271056,0.55013525,-0.31818122,0.1566128,0.024843445,0.007080078
15:10:23.260;-0.076614454,-0.4213795,7.967903,0.120372176,0.30257857,-0.07522009,11.04,-22.217997,9.936001,244.91579,1000,1000,1000,1000,0.0,0.0,0.0,0.0,1010.83997,25.9,20.083923,28.130066,20.198763,0.28130066,-3.544315,1.0163926,-0.7417291,-3.0271056,0.55013525,-0.316496,0.1608489,0.023790363,0.007080078
15:10:23.281;-0.15322891,-0.5746084,8.00621,-0.06273329,-0.06363237,-0.014184937,11.04,-22.125998,9.936001,244.90866,1000,1000,1000,1000,0.0,0.0,0.0,0.0,1010.83997,25.9,20.083923,28.130066,20.198763,0.28130066,-3.5568068,1.0166276,-0.7281584,-4.1043496,1.0936238,-0.31781343,0.15951262,0.022210741,0.014205933
15:10:23.292;-0.15322891,-0.5746084,8.00621,-0.06273329,-0.06363237,-0.014184937,11.04,-22.125998,9.936001,244.90866,1000,1000,1000,1000,0.0,0.0,0.0,0.0,1010.83997,25.9,20.083923,28.130066,20.198763,0.28130066,-3.5684338,1.0174814,-0.713464,-4.1043496,1.0936238,-0.3185035,0.15881267,0.022054708,0.014205933
15:10:23.304;0.0,-0.6512229,7.929596,-0.30687392,-0.0025972128,0.04685022,11.04,-22.125998,9.936001,244.90866,1000,1000,1000,1000,0.0,0.0,0.0,0.0,1010.86,25.9,19.917461,28.130066,20.198763,0.28130066,-3.594572,0.99710137,-0.6990774,-4.6949143,-0.0,-0.322186,0.1587815,0.021884488,0.014205933
15:10:23.323;0.0,-0.6512229,7.929596,-0.30687392,-0.0025972128,0.04685022,11.04,-22.125998,9.936001,244.90866,1000,1000,1000,1000,0.0,0.0,0.0,0.0,1010.86,25.9,19.917461,28.130066,20.198763,0.28130066,-3.622293,0.977111,-0.6839394,-4.6949143,-0.0,-0.3280166,0.15873215,0.022774642,0.014205933
15:10:23.339;-0.038307227,-0.49799395,8.00621,0.120372176,0.24154341,0.107885376,11.04,-22.31,9.844,244.92287,1000,1000,1000,1000,0.0,0.0,0.0,0.0,1010.86,25.9,19.917461,28.130066,20.198763,0.28130066,-3.6191442,0.9668284,-0.66952604,-3.5592263,0.27361163,-0.32609066,0.16259684,0.023524245,0.0
15:10:23.354;-0.038307227,-0.49799395,8.00621,0.120372176,0.24154341,0.107885376,11.04,-22.31,9.844,244.92287,1000,1000,1000,1000,0.0,0.0,0.0,0.0,1010.83997,26.0,20.083923,28.130066,20.198763,0.28130066,-3.6161764,0.9565148,-0.65454966,-3.5592263,0.27361163,-0.3242851,0.16622,0.025142526,0.0
15:10:23.367;0.19153613,-0.5746084,8.695741,0.120372176,0.9739653,-0.86867714,11.04,-22.31,9.844,244.92287,1000,1000,1000,1000,0.0,0.0,0.0,0.0,1010.83997,26.0,20.083923,28.130066,20.198763,0.28130066,-3.6179125,0.92461145,-0.6400842,-3.7796543,-1.2590725,-0.32272026,0.17888154,0.026545037,0.0
15:10:23.384;0.19153613,-0.5746084,8.695741,0.120372176,0.9739653,-0.86867714,11.04,-22.31,9.844,244.92287,1000,1000,1000,1000,0.0,0.0,0.0,0.0,1010.86,25.9,19.917461,28.130066,20.198763,0.28130066,-3.6191418,0.89716405,-0.6417547,-3.7796543,-1.2590725,-0.32067394,0.19543895,0.011777525,0.0
15:10:23.396;-0.11492168,-0.4213795,7.699753,-0.73412,-0.67398393,0.04685022,11.04,-22.125998,9.936001,244.90866,1000,1000,1000,1000,0.0,0.0,0.0,0.0,1010.86,25.9,19.917461,28.060951,20.19807,0.28060952,-3.6180346,0.8883711,-0.6388511,-3.132117,0.85381997,-0.3294834,0.18735114,0.0013533989,0.014205933
15:10:23.431;-0.11492168,-0.4213795,7.699753,-0.73412,-0.67398393,0.04685022,11.04,-22.125998,9.936001,244.90866,1000,1000,1000,1000,0.0,0.0,0.0,0.0,1010.86,25.9,19.917461,28.060951,20.19807,0.28060952,-3.6334965,0.86456245,-0.624183,-3.132117,0.85381997,-0.35517758,0.1637617,0.0029931567,0.014205933
15:10:23.443;-0.038307227,-0.49799395,8.121132,0.85279405,0.851895,-0.31936073,11.04,-22.125998,9.936001,244.90866,1000,1000,1000,1000,0.0,0.0,0.0,0.0,1010.74,25.9,20.918882,28.130066,20.198763,0.28130066,-3.6209774,0.86268455,-0.6108643,-3.5089877,0.26975444,-0.34494406,0.17398444,0.0035553593,0.014205933
15:10:23.455;-0.11492168,-0.34476504,7.8912888,-0.1848036,-0.24673784,-0.07522009,11.132,-22.217997,9.936001,245.05833,1000,1000,1000,1000,0.0,0.0,0.0,0.0,1010.74,25.9,20.918882,28.130066,20.198763,0.28130066,-3.6007583,0.85920024,-0.605112,-2.5013578,0.8335506,-0.3471617,0.17102358,-2.769695E-4,-0.13546753
15:10:23.468;-0.11492168,-0.34476504,7.8912888,-0.1848036,-0.24673784,-0.07522009,11.132,-22.217997,9.936001,245.05833,1000,1000,1000,1000,0.0,0.0,0.0,0.0,1010.74,25.9,20.918882,28.130066,20.198763,0.28130066,-3.5811248,0.85554385,-0.5966774,-2.5013578,0.8335506,-0.34956416,0.16781598,-0.0012548307,-0.13546753
