15:17:15.859;X[m/s²],Y[m/s²],Z[m/s²],X[°/s],Y[°/s],Z[°/s],X[µT],Y[µT],Z[µT],Direção[°],R1[µsec],R2[µsec],R3[µsec],R4[µsec],R1[RPM],R2[RPM],R3[RPM],R4[RPM],Baro[hPa],Baro[°C],Baro[m],Down[cm],Abs[m],Rel[m],X [°],Y [°],Z [°],Acce X[°],Acce Y[°],Gyro X[°],Gyro Y[°],Gyro Z[°],Mag Z[°]
15:17:15.860;-0.30645782,-0.5363012,7.967903,-0.24583876,0.058437943,0.107885376,11.132,-23.597998,8.740001,245.1561,1000,1000,1000,1000,0.0,0.0,0.0,0.0,1010.74,25.9,20.918882,41.331158,20.918882,0.41331157,-0.07695598,0.04395257,0.0,-3.8478026,2.1976306,0.0,0.0,0.0,0.0
15:17:15.866;-0.15322891,-0.5363012,8.082825,-0.0016981363,0.1194731,-0.07522009,11.04,-23.597998,8.832,245.01868,1000,1000,1000,1000,0.0,0.0,0.0,0.0,1010.83997,25.9,20.083923,41.331158,21.332193,0.41331157,-0.1513392,0.065800525,0.00199434,-3.795372,1.0836637,-1.5283227E-5,0.0010752579,9.7096834E-4,0.13742065
15:17:15.879;-0.15322891,-0.5363012,8.082825,-0.0016981363,0.1194731,-0.07522009,11.04,-23.597998,8.832,245.01868,1000,1000,1000,1000,0.0,0.0,0.0,0.0,1010.83997,25.9,20.083923,41.331158,21.332193,0.41331157,-0.22424142,0.087679856,0.0020395091,-3.795372,1.0836637,-3.7359E-5,0.0026284084,-6.892893E-6,0.13742065
15:17:15.893;-0.15322891,-0.5746084,8.00621,-0.1848036,-0.0025972128,-0.44143105,11.04,-23.597998,8.832,245.01868,1000,1000,1000,1000,0.0,0.0,0.0,0.0,1010.77997,25.9,20.583313,41.331158,21.332193,0.41331157,-0.30437902,0.10776308,0.0020096835,-4.1043496,1.0936238,-0.0026246097,0.0025920474,-0.0010599743,0.13742065
15:17:15.908;-0.15322891,-0.5746084,8.00621,-0.1848036,-0.0025972128,-0.44143105,11.04,-23.597998,8.832,245.01868,1000,1000,1000,1000,0.0,0.0,0.0,0.0,1010.77997,25.9,20.583313,41.331158,21.332193,0.41331157,-0.383095,0.12744209,-0.0035465395,-4.1043496,1.0936238,-0.0053966637,0.0025530893,-0.0076814396,0.13742065
15:17:15.922;-0.11492168,-0.45968673,7.967903,-0.0016981363,-0.0025972128,0.352026,11.04,-22.862001,8.832,244.96478,1000,1000,1000,1000,0.0,0.0,0.0,0.0,1010.77997,25.9,20.583313,41.331158,21.332193,0.41331157,-0.44148684,0.14135666,-0.008218766,-3.3015232,0.8249526,-0.0054204375,0.0025167284,-0.013861475,0.1913147
15:17:15.937;-0.11492168,-0.45968673,7.967903,-0.0016981363,-0.0025972128,0.352026,11.04,-22.862001,8.832,244.96478,1000,1000,1000,1000,0.0,0.0,0.0,0.0,1010.8,25.9,20.416851,41.331158,21.332193,0.41331157,-0.49871248,0.1549904,-0.00148148,-3.3015232,0.8249526,-0.0054459097,0.0024777702,-0.008581085,0.1913147
15:17:15.952;-0.15322891,-0.5363012,8.0445175,0.05933702,0.30257857,0.16892053,11.04,-22.862001,8.832,244.96478,1000,1000,1000,1000,0.0,0.0,0.0,0.0,1010.8,25.9,20.416851,41.331158,21.332193,0.41331157,-0.56413364,0.17811449,0.0052052764,-3.8133852,1.0888,-0.0045558545,0.007016449,-0.0033006957,0.1913147
15:17:15.967;-0.15322891,-0.5363012,8.0445175,0.05933702,0.30257857,0.16892053,11.04,-22.862001,8.832,244.96478,1000,1000,1000,1000,0.0,0.0,0.0,0.0,1010.8,25.9,20.416851,41.331158,21.332193,0.41331157,-0.6282463,0.20077609,0.0091159,-3.8133852,1.0888,-0.0036657993,0.011555128,-7.668878E-4,0.1913147
15:17:15.981;-0.19153613,-0.49799395,7.929596,-0.12376845,-0.24673784,-0.6245365,10.948,-23.137999,8.832,244.84618,1000,1000,1000,1000,0.0,0.0,0.0,0.0,1010.72,25.9,21.085346,41.331158,21.332193,0.41331157,-0.68922985,0.22099464,0.013719089,-3.592521,1.3809674,-0.0053985575,0.008100798,0.0015979998,0.30992126
15:17:15.995;-0.19153613,-0.49799395,7.929596,-0.12376845,-0.24673784,-0.6245365,10.948,-23.137999,8.832,244.84618,1000,1000,1000,1000,0.0,0.0,0.0,0.0,1010.72,25.9,21.085346,41.331158,21.332193,0.41331157,-0.74899375,0.24080883,0.0072626686,-3.592521,1.3809674,-0.007131316,0.0046464684,-0.007145512,0.30992126
15:17:16.009;-0.15322891,-0.49799395,7.967903,0.05933702,-0.0025972128,0.4740963,10.948,-23.137999,8.832,244.84618,1000,1000,1000,1000,0.0,0.0,0.0,0.0,1010.72,25.9,21.085346,41.331158,21.332193,0.41331157,-0.8047132,0.25794822,8.5467054E-4,-3.575675,1.0995612,-0.0063005975,0.0046101073,-0.015889022,0.30992126
15:17:16.023;-0.15322891,-0.49799395,7.967903,0.05933702,-0.0025972128,0.4740963,10.948,-23.137999,8.832,244.84618,1000,1000,1000,1000,0.0,0.0,0.0,0.0,1010.8,25.9,20.416851,41.331158,21.332193,0.41331157,-0.85931826,0.2747448,0.009760236,-3.575675,1.0995612,-0.005469879,0.004573746,-0.009251675,0.30992126
15:17:16.037;-0.076614454,-0.45968673,8.0445175,-0.12376845,-0.0025972128,-0.014184937,11.04,-23.046,8.832,244.97845,1000,1000,1000,1000,0.0,0.0,0.0,0.0,1010.8,25.9,20.416851,41.331158,21.332193,0.41331157,-0.9092367,0.28010964,0.017606923,-3.27034,0.544769,-0.0072026374,0.004537385,-0.0026143263,0.17764282
15:17:16.051;-0.076614454,-0.45968673,8.0445175,-0.12376845,-0.0025972128,-0.014184937,11.04,-23.046,8.832,244.97845,1000,1000,1000,1000,0.0,0.0,0.0,0.0,1010.8,25.9,20.416851,41.331158,21.332193,0.41331157,-0.9581569,0.2853672,0.018610092,-3.27034,0.544769,-0.008935396,0.004501024,-0.0028129155,0.17764282
15:17:16.066;-0.19153613,-0.45968673,8.00621,-0.12376845,0.058437943,-0.31936073,11.04,-23.046,8.832,244.97845,1000,1000,1000,1000,0.0,0.0,0.0,0.0,1010.72,25.9,21.085346,41.331158,21.332193,0.41331157,-1.0065163,0.30788285,0.01959166,-3.285164,1.3681985,-0.010791922,0.005377593,-0.0030256896,0.17764282
15:17:16.081;-0.19153613,-0.45968673,8.00621,-0.12376845,0.058437943,-0.31936073,11.04,-23.046,8.832,244.97845,1000,1000,1000,1000,0.0,0.0,0.0,0.0,1010.72,25.9,21.085346,41.331158,21.332193,0.41331157,-1.0539087,0.3299482,0.01602256,-3.285164,1.3681985,-0.012648448,0.006254162,-0.0078161005,0.17764282
15:17:16.096;-0.038307227,-0.5363012,8.082825,-0.0016981363,0.1194731,0.4740963,11.04,-23.046,8.832,244.97845,1000,1000,1000,1000,0.0,0.0,0.0,0.0,1010.72,25.9,21.085346,41.331158,21.332193,0.41331157,-1.108774,0.33040732,0.012797193,-3.7960093,0.2709462,-0.012672222,0.007926785,-0.012287151,0.17764282
15:17:16.110;-0.038307227,-0.5363012,8.082825,-0.0016981363,0.1194731,0.4740963,11.04,-23.046,8.832,244.97845,1000,1000,1000,1000,0.0,0.0,0.0,0.0,1010.8,25.9,20.416851,41.331158,21.332193,0.41331157,-1.1625435,0.33097437,0.021091642,-3.7960093,0.2709462,-0.012697694,0.009718882,-0.005175707,0.17764282
15:17:16.124;-0.19153613,-0.45968673,7.967903,-0.1848036,-0.307773,-0.1972904,11.04,-23.137999,8.740001,244.98523,1000,1000,1000,1000,0.0,0.0,0.0,0.0,1010.8,25.9,20.416851,41.400272,21.332886,0.41400272,-1.2078464,0.34762728,0.028802529,-3.3009143,1.374752,-0.015284944,0.00541006,0.0014616414,0.17086792
15:17:16.138;-0.19153613,-0.45968673,7.967903,-0.1848036,-0.307773,-0.1972904,11.04,-23.137999,8.740001,244.98523,1000,1000,1000,1000,0.0,0.0,0.0,0.0,1010.8,25.9,20.416851,41.400272,21.332886,0.41400272,-1.2522432,0.36394712,0.027126666,-3.3009143,1.374752,-0.017872196,0.0011012377,-0.0013004243,0.17086792
15:17:16.152;-0.11492168,-0.49799395,8.00621,0.120372176,-0.0025972128,-0.1972904,11.04,-23.137999,8.740001,244.98523,1000,1000,1000,1000,0.0,0.0,0.0,0.0,1010.68,25.9,21.418272,41.400272,21.332886,0.41400272,-1.2967247,0.37304825,0.025463372,-3.558901,0.8207849,-0.016186986,0.0010648768,-0.00406249,0.17086792
15:17:16.169;-0.11492168,-0.49799395,8.00621,0.120372176,-0.0025972128,-0.1972904,11.04,-23.137999,8.740001,244.98523,1000,1000,1000,1000,0.0,0.0,0.0,0.0,1010.68,25.9,21.418272,41.331158,21.332193,0.41331157,-1.3399627,0.38195968,0.023225123,-3.558901,0.8207849,-0.014140659,0.0010207242,-0.007416427,0.17086792
15:17:16.183;-0.15322891,-0.45968673,8.082825,-0.1848036,0.1194731,0.4740963,11.04,-23.046,8.832,244.97845,1000,1000,1000,1000,0.0,0.0,0.0,0.0,1010.68,25.9,21.418272,41.331158,21.332193,0.41331157,-1.3807877,0.39764553,0.021641904,-3.254438,1.0842942,-0.01672791,0.0026933476,-0.010178493,0.17764282
15:17:16.198;-0.15322891,-0.45968673,8.082825,-0.1848036,0.1194731,0.4740963,11.04,-23.046,8.832,244.97845,1000,1000,1000,1000,0.0,0.0,0.0,0.0,1010.89996,25.9,19.584534,41.331158,21.332193,0.41331157,-1.4209774,0.41313475,0.029870018,-3.254438,1.0842942,-0.019499963,0.004485444,-0.0030670492,0.17764282
15:17:16.212;-0.15322891,-0.5363012,8.00621,0.05933702,-0.0025972128,-0.25832558,11.04,-23.046,8.832,244.97845,1000,1000,1000,1000,0.0,0.0,0.0,0.0,1010.89996,25.9,19.584534,41.331158,21.332193,0.41331157,-1.468375,0.42671612,0.037565883,-3.8315704,1.0939851,-0.018669244,0.004449083,0.0035702991,0.17764282
15:17:16.226;-0.15322891,-0.5363012,8.00621,0.05933702,-0.0025972128,-0.25832558,11.04,-23.046,8.832,244.97845,1000,1000,1000,1000,0.0,0.0,0.0,0.0,1010.89996,25.9,19.584534,41.331158,21.332193,0.41331157,-1.5148246,0.44002584,0.035027027,-3.8315704,1.0939851,-0.017838527,0.004412722,-4.6259025E-5,0.17764282
15:17:16.244;-0.11492168,-0.45968673,8.00621,-0.0016981363,0.1194731,-0.07522009,11.04,-23.046,8.832,244.97845,1000,1000,1000,1000,0.0,0.0,0.0,0.0,1010.83997,25.9,20.083923,41.331158,21.332193,0.41331157,-1.5502733,0.4497532,0.031481657,-3.2857642,0.821019,-0.017869093,0.006563238,-0.0046961196,0.17764282
15:17:16.258;-0.11492168,-0.45968673,8.00621,-0.0016981363,0.1194731,-0.07522009,11.04,-23.046,8.832,244.97845,1000,1000,1000,1000,0.0,0.0,0.0,0.0,1010.83997,25.9,20.083923,41.331158,21.332193,0.41331157,-1.5850047,0.4587006,0.031607337,-3.2857642,0.821019,-0.017891169,0.008116389,-0.005673981,0.17764282
15:17:16.269;-0.11492168,-0.49799395,8.00621,0.120372176,-0.18570268,0.53513145,11.04,-23.046,8.832,244.97845,1000,1000,1000,1000,0.0,0.0,0.0,0.0,1010.83997,25.9,20.083923,41.331158,21.332193,0.41331157,-1.623067,0.4637584,0.03180673,-3.558901,0.8207849,-0.016446702,0.0058879564,-0.006576622,0.17764282
15:17:16.285;-0.11492168,-0.49799395,8.00621,0.120372176,-0.18570268,0.53513145,11.04,-23.046,8.832,244.97845,1000,1000,1000,1000,0.0,0.0,0.0,0.0,1010.83997,25.9,20.083923,41.331158,21.332193,0.41331157,-1.6600143,0.46816912,0.04086727,-3.558901,0.8207849,-0.014641119,0.0031024162,0.0014503496,0.17764282
15:17:16.298;-0.15322891,-0.49799395,7.967903,-0.0016981363,0.24154341,-0.1972904,11.04,-22.954,8.832,244.97163,1000,1000,1000,1000,0.0,0.0,0.0,0.0,1010.86,25.9,19.917461,41.400272,21.332886,0.41400272,-1.6983507,0.48411092,0.049379893,-3.575675,1.0995612,-0.014664893,0.006484024,0.008942191,0.1844635
15:17:16.314;-0.15322891,-0.49799395,7.967903,-0.0016981363,0.24154341,-0.1972904,11.04,-22.954,8.832,244.97163,1000,1000,1000,1000,0.0,0.0,0.0,0.0,1010.86,25.9,19.917461,41.400272,21.332886,0.41400272,-1.7359238,0.5002073,0.047260046,-3.575675,1.0995612,-0.014692063,0.010348719,0.005785544,0.1844635
15:17:16.327;-0.15322891,-0.45968673,7.967903,-0.06273329,-0.18570268,0.04685022,11.04,-22.954,8.832,244.97163,1000,1000,1000,1000,0.0,0.0,0.0,0.0,1010.74,25.9,20.918882,41.400272,21.332886,0.41400272,-1.7680296,0.5098348,0.045743532,-3.3012567,1.0998777,-0.015507597,0.007934583,0.0032207686,0.1844635
15:17:16.341;-0.15322891,-0.45968673,7.967903,-0.06273329,-0.18570268,0.04685022,11.04,-22.954,8.832,244.97163,1000,1000,1000,1000,0.0,0.0,0.0,0.0,1010.74,25.9,20.918882,41.400272,21.332886,0.41400272,-1.7995547,0.51908785,0.04743492,-3.3012567,1.0998777,-0.016385863,0.0053347456,0.0038766717,0.1844635
15:17:16.356;-0.076614454,-0.49799395,8.0445175,0.05933702,0.058437943,0.29099083,11.04,-22.954,8.832,244.97163,1000,1000,1000,1000,0.0,0.0,0.0,0.0,1010.74,25.9,20.918882,41.400272,21.332886,0.41400272,-1.8335353,0.5204574,0.049160115,-3.542201,0.54461515,-0.015495807,0.006211315,0.004579425,0.1844635
15:17:16.369;-0.076614454,-0.49799395,8.0445175,0.05933702,0.058437943,0.29099083,11.04,-22.954,8.832,244.97163,1000,1000,1000,1000,0.0,0.0,0.0,0.0,1010.86,25.9,19.917461,41.400272,21.332886,0.41400272,-1.8669527,0.52168506,0.0539294,-3.542201,0.54461515,-0.014724426,0.006971008,0.008362306,0.1844635
15:17:16.383;-0.22984336,-0.45968673,7.929596,-0.1848036,-0.124667525,-0.44143105,10.856,-22.954,8.740001,244.6922,1000,1000,1000,1000,0.0,0.0,0.0,0.0,1010.86,25.9,19.917461,41.400272,21.332886,0.41400272,-1.898477,0.54269093,0.06104748,-3.3163915,1.6575011,-0.017311677,0.0052256626,0.012436178,0.4638977
15:17:16.397;-0.22984336,-0.45968673,7.929596,-0.1848036,-0.124667525,-0.44143105,10.856,-22.954,8.740001,244.6922,1000,1000,1000,1000,0.0,0.0,0.0,0.0,1010.86,25.9,19.917461,38.84299,21.307312,0.3884299,-1.9293708,0.5632767,0.05793517,-3.3163915,1.6575011,-0.019898929,0.003480317,0.0062561426,0.4638977
15:17:16.411;-0.11492168,-0.49799395,8.082825,0.05933702,0.058437943,0.04685022,10.856,-22.954,8.740001,244.6922,1000,1000,1000,1000,0.0,0.0,0.0,0.0,1010.8,25.9,20.416851,38.84299,21.307312,0.3884299,-1.9604744,0.5690736,0.054846205,-3.5252597,0.8130356,-0.019068211,0.0042984486,7.610768E-5,0.4638977
15:17:16.425;-0.11492168,-0.49799395,8.082825,0.05933702,0.058437943,0.04685022,10.856,-22.954,8.740001,244.6922,1000,1000,1000,1000,0.0,0.0,0.0,0.0,1010.8,25.9,20.416851,38.84299,21.307312,0.3884299,-1.990956,0.5747546,0.058565076,-3.5252597,0.8130356,-0.018237494,0.00511658,7.3201075E-4,0.4638977
15:17:16.439;-0.11492168,-0.5363012,8.0445175,-0.0016981363,0.1194731,-0.07522009,10.948,-23.046,8.740001,244.83905,1000,1000,1000,1000,0.0,0.0,0.0,0.0,1010.8,25.9,20.416851,38.84299,21.307312,0.3884299,-2.0274336,0.58123153,0.06115468,-3.813687,0.816643,-0.018261269,0.0067892037,0.0013879138,0.31704712
15:17:16.453;-0.11492168,-0.5363012,8.0445175,-0.0016981363,0.1194731,-0.07522009,10.948,-23.046,8.740001,244.83905,1000,1000,1000,1000,0.0,0.0,0.0,0.0,1010.8,25.9,20.416851,38.84299,21.307312,0.3884299,-2.0631819,0.58757895,0.06202869,-3.813687,0.816643,-0.018285044,0.008461827,3.3483247E-4,0.31704712
15:17:16.468;-0.15322891,-0.45968673,8.00621,-0.12376845,-0.124667525,-0.25832558,10.948,-23.046,8.740001,244.83905,1000,1000,1000,1000,0.0,0.0,0.0,0.0,1010.8,25.9,20.416851,38.84299,21.307312,0.3884299,-2.0893266,0.5960096,0.06289615,-3.2855017,1.0946337,-0.020017803,0.006716482,-7.182489E-4,0.31704712
15:17:16.481;-0.15322891,-0.45968673,8.00621,-0.12376845,-0.124667525,-0.25832558,10.948,-23.046,8.740001,244.83905,1000,1000,1000,1000,0.0,0.0,0.0,0.0,1010.8,25.9,20.416851,38.84299,21.307312,0.3884299,-2.1149483,0.60427165,0.06121285,-3.2855017,1.0946337,-0.021750562,0.0049711363,-0.004334807,0.31704712
15:17:16.495;-0.11492168,-0.49799395,8.00621,-0.06273329,0.18050826,0.107885376,11.04,-22.954,8.740001,244.97163,1000,1000,1000,1000,0.0,0.0,0.0,0.0,1010.77997,25.9,20.583313,38.84299,21.307312,0.3884299,-2.1446881,0.61107844,0.058547795,-3.558901,0.8207849,-0.022628829,0.007498252,-0.007951365,0.1844635
15:17:16.509;-0.11492168,-0.49799395,8.00621,-0.06273329,0.18050826,0.107885376,11.04,-22.954,8.740001,244.97163,1000,1000,1000,1000,0.0,0.0,0.0,0.0,1010.77997,25.9,20.583313,38.84299,21.307312,0.3884299,-2.1738331,0.6177491,0.06099123,-3.558901,0.8207849,-0.023507096,0.010025368,-0.0064409696,0.1844635
15:17:16.524;-0.19153613,-0.45968673,7.967903,-0.30687392,-0.06363237,-0.31936073,11.04,-22.954,8.740001,244.97163,1000,1000,1000,1000,0.0,0.0,0.0,0.0,1010.77997,25.9,20.583313,38.84299,21.307312,0.3884299,-2.2008858,0.6319537,0.06352341,-3.3009143,1.374752,-0.028110204,0.009070883,-0.004822689,0.1844635
15:17:16.539;-0.19153613,-0.45968673,7.967903,-0.30687392,-0.06363237,-0.31936073,11.04,-22.954,8.740001,244.97163,1000,1000,1000,1000,0.0,0.0,0.0,0.0,1010.77997,25.9,20.583313,38.84299,21.307312,0.3884299,-2.2270966,0.64593667,0.059992947,-3.3009143,1.374752,-0.03240644,0.00818003,-0.00929374,0.1844635
15:17:16.552;-0.11492168,-0.49799395,8.00621,0.120372176,0.24154341,-0.014184937,11.04,-22.954,8.740001,244.97163,1000,1000,1000,1000,0.0,0.0,0.0,0.0,1010.77997,25.9,20.583313,38.84299,21.307312,0.3884299,-2.2521992,0.6525109,0.056805924,-3.558901,0.8207849,-0.0308416,0.011320094,-0.0134454295,0.1844635
15:17:16.567;-0.11492168,-0.49799395,8.00621,0.120372176,0.24154341,-0.014184937,11.04,-22.954,8.740001,244.97163,1000,1000,1000,1000,0.0,0.0,0.0,0.0,1010.77997,25.9,20.583313,38.84299,21.307312,0.3884299,-2.2764459,0.65966374,0.0575381,-3.558901,0.8207849,-0.028915646,0.015184788,-0.013672388,0.1844635
15:17:16.580;-0.076614454,-0.49799395,7.967903,-0.12376845,-0.06363237,0.29099083,10.856,-22.954,8.740001,244.6922,1000,1000,1000,1000,0.0,0.0,0.0,0.0,1010.77997,25.9,20.583313,38.84299,21.307312,0.3884299,-2.3040173,0.65665644,0.060402773,-3.5761695,0.5498312,-0.030524636,0.014357567,-0.013856792,0.4638977
15:17:16.595;-0.076614454,-0.49799395,7.967903,-0.12376845,-0.06363237,0.29099083,10.856,-22.954,8.740001,244.6922,1000,1000,1000,1000,0.0,0.0,0.0,0.0,1010.83997,25.9,20.083923,38.84299,21.307312,0.3884299,-2.3312798,0.65358454,0.06776111,-3.5761695,0.5498312,-0.032381162,0.013403081,-0.00949193,0.4638977
15:17:16.609;-0.15322891,-0.5363012,8.0445175,-0.12376845,-0.0025972128,-0.25832558,10.856,-22.954,8.740001,244.6922,1000,1000,1000,1000,0.0,0.0,0.0,0.0,1010.83997,25.9,20.083923,36.423943,21.283121,0.36423942,-2.36262,0.6622532,0.07477545,-3.8133852,1.0888,-0.03411392,0.013366721,-0.005418058,0.4638977
15:17:16.622;-0.15322891,-0.5363012,8.0445175,-0.12376845,-0.0025972128,-0.25832558,10.856,-22.954,8.740001,244.6922,1000,1000,1000,1000,0.0,0.0,0.0,0.0,1010.83997,25.9,20.083923,36.423943,21.283121,0.36423942,-2.3932123,0.67075104,0.07436082,-3.8133852,1.0888,-0.03572291,0.0133329565,-0.00877629,0.4638977
15:17:16.636;-0.076614454,-0.49799395,7.967903,-0.1848036,0.18050826,-0.014184937,10.948,-22.954,8.832,244.83191,1000,1000,1000,1000,0.0,0.0,0.0,0.0,1010.8,25.9,20.416851,36.423943,21.283121,0.36423942,-2.4194071,0.67080927,0.07264509,-3.5761695,0.5498312,-0.038310163,0.015860071,-0.012392849,0.32418823
15:17:16.651;-0.076614454,-0.49799395,7.967903,-0.1848036,0.18050826,-0.014184937,10.948,-22.954,8.832,244.83191,1000,1000,1000,1000,0.0,0.0,0.0,0.0,1010.8,25.9,20.416851,38.91211,21.308004,0.3891211,-2.445259,0.67104316,0.07432048,-3.5761695,0.5498312,-0.04108222,0.018567696,-0.012605622,0.32418823
15:17:16.665;-0.038307227,-0.5746084,7.967903,-0.06273329,0.058437943,0.04685022,10.948,-22.954,8.832,244.83191,1000,1000,1000,1000,0.0,0.0,0.0,0.0,1010.8,25.9,20.416851,38.91211,21.308004,0.3891211,-2.479709,0.663919,0.07599739,-4.124719,0.27474487,-0.041960485,0.019385828,-0.012804211,0.32418823
15:17:16.680;-0.038307227,-0.5746084,7.967903,-0.06273329,0.058437943,0.04685022,10.948,-22.954,8.832,244.83191,1000,1000,1000,1000,0.0,0.0,0.0,0.0,1010.8,25.9,20.416851,38.91211,21.308004,0.3891211,-2.5135312,0.6569945,0.0785563,-4.124719,0.27474487,-0.042901486,0.020262396,-0.012101457,0.32418823
15:17:16.694;-0.076614454,-0.45968673,7.967903,-0.06273329,-0.06363237,-0.014184937,10.948,-22.954,8.740001,244.83191,1000,1000,1000,1000,0.0,0.0,0.0,0.0,1010.8,25.9,20.416851,38.91211,21.308004,0.3891211,-2.5301557,0.6539814,0.08104952,-3.3017135,0.5499895,-0.043779753,0.019371543,-0.011445554,0.32418823
15:17:16.708;-0.076614454,-0.45968673,7.967903,-0.06273329,-0.06363237,-0.014184937,10.948,-22.954,8.740001,244.83191,1000,1000,1000,1000,0.0,0.0,0.0,0.0,1010.86,25.9,19.917461,38.91211,21.308004,0.3891211,-2.5464478,0.6510285,0.082675956,-3.3017135,0.5499895,-0.04465802,0.01848069,-0.011644143,0.32418823
15:17:16.722;-0.15322891,-0.49799395,8.00621,0.05933702,0.058437943,0.04685022,10.948,-22.954,8.740001,244.83191,1000,1000,1000,1000,0.0,0.0,0.0,0.0,1010.86,25.9,19.917461,38.91211,21.308004,0.3891211,-2.565877,0.66069615,0.0842902,-3.5586169,1.0943217,-0.043827303,0.019298822,-0.011842731,0.32418823
15:17:16.736;-0.15322891,-0.49799395,8.00621,0.05933702,0.058437943,0.04685022,10.948,-22.954,8.740001,244.83191,1000,1000,1000,1000,0.0,0.0,0.0,0.0,1010.86,25.9,19.917461,38.91211,21.308004,0.3891211,-2.5849178,0.6701704,0.08674042,-3.5586169,1.0943217,-0.042996585,0.020116953,-0.011186828,0.32418823
15:17:16.750;-0.15322891,-0.45968673,7.967903,-0.06273329,0.058437943,-0.07522009,10.948,-22.954,8.740001,244.83191,1000,1000,1000,1000,0.0,0.0,0.0,0.0,1010.83997,25.9,20.083923,36.423943,21.283121,0.36423942,-2.6001053,0.6795663,0.08917226,-3.3012567,1.0998777,-0.043874852,0.020935085,-0.010530924,0.32418823
15:17:16.764;-0.15322891,-0.45968673,7.967903,-0.06273329,0.058437943,-0.07522009,10.948,-22.954,8.740001,244.83191,1000,1000,1000,1000,0.0,0.0,0.0,0.0,1010.83997,25.9,20.083923,36.423943,21.283121,0.36423942,-2.614989,0.6887743,0.08988969,-3.3012567,1.0998777,-0.04475312,0.021753216,-0.011584006,0.32418823
15:17:16.778;-0.15322891,-0.49799395,8.00621,-0.0016981363,-0.0025972128,-0.13625525,10.948,-23.046,8.740001,244.83905,1000,1000,1000,1000,0.0,0.0,0.0,0.0,1010.83997,25.9,20.083923,36.423943,21.283121,0.36423942,-2.633885,0.6968496,0.09054819,-3.5586169,1.0943217,-0.044776894,0.021716855,-0.012637088,0.31704712
15:17:16.792;-0.15322891,-0.49799395,8.00621,-0.0016981363,-0.0025972128,-0.13625525,10.948,-23.046,8.740001,244.83905,1000,1000,1000,1000,0.0,0.0,0.0,0.0,1010.83997,25.9,20.083923,38.84299,21.307312,0.3884299,-2.6524029,0.7047634,0.09035367,-3.5586169,1.0943217,-0.04480067,0.021680495,-0.014544662,0.31704712
15:17:16.806;-0.11492168,-0.5363012,8.0445175,-0.06273329,0.30257857,0.352026,10.948,-23.046,8.740001,244.83905,1000,1000,1000,1000,0.0,0.0,0.0,0.0,1010.74,25.9,20.918882,38.84299,21.307312,0.3884299,-2.6764894,0.7111524,0.0901606,-3.813687,0.816643,-0.045678936,0.025916595,-0.016452236,0.31704712
15:17:16.821;-0.11492168,-0.5363012,8.0445175,-0.06273329,0.30257857,0.352026,10.948,-23.046,8.740001,244.83905,1000,1000,1000,1000,0.0,0.0,0.0,0.0,1010.74,25.9,20.918882,38.84299,21.307312,0.3884299,-2.700094,0.7174136,0.09675365,-3.813687,0.816643,-0.046557203,0.030152695,-0.011523873,0.31704712
15:17:16.836;-0.11492168,-0.5363012,8.0445175,-0.06273329,0.30257857,0.352026,10.948,-23.046,8.740001,244.83905,1000,1000,1000,1000,0.0,0.0,0.0,0.0,1010.74,25.9,20.918882,38.84299,21.307312,0.3884299,-2.723288,0.7238461,0.103646636,-3.813687,0.816643,-0.047498204,0.034691375,-0.006243483,0.31704712
15:17:16.850;-0.15322891,-0.5363012,7.967903,-0.0016981363,-0.0025972128,0.04685022,10.856,-23.046,8.740001,244.69969,1000,1000,1000,1000,0.0,0.0,0.0,0.0,1010.74,25.9,20.918882,66.14368,21.580318,0.6614368,-2.7458441,0.73131794,0.11118373,-3.8499293,1.0992197,-0.04752198,0.034655012,-0.0013151192,0.45640564
15:17:16.863;-0.15322891,-0.5363012,7.967903,-0.0016981363,-0.0025972128,0.04685022,10.856,-23.046,8.740001,244.69969,1000,1000,1000,1000,0.0,0.0,0.0,0.0,1010.83997,25.9,20.083923,66.14368,21.580318,0.6614368,-2.767949,0.73864037,0.114423886,-3.8499293,1.0992197,-0.047545753,0.03461865,-6.5921614E-4,0.45640564
15:17:16.877;-0.15322891,-0.45968673,7.929596,-0.06273329,-0.06363237,-0.25832558,10.856,-23.046,8.740001,244.69969,1000,1000,1000,1000,0.0,0.0,0.0,0.0,1010.83997,25.9,20.083923,66.14368,21.580318,0.6614368,-2.7797942,0.745098,0.117639735,-3.3171632,1.105172,-0.04842402,0.033727795,-3.3130636E-6,0.45640564
15:17:16.891;-0.15322891,-0.45968673,7.929596,-0.06273329,-0.06363237,-0.25832558,10.856,-23.046,8.740001,244.69969,1000,1000,1000,1000,0.0,0.0,0.0,0.0,1010.83997,25.9,20.083923,66.14368,21.580318,0.6614368,-2.7914026,0.75142646,0.11659105,-3.3171632,1.105172,-0.049302287,0.03283694,-0.003619871,0.45640564
15:17:16.906;-0.11492168,-0.49799395,7.967903,-0.0016981363,0.058437943,-0.014184937,10.948,-22.954,8.740001,244.83191,1000,1000,1000,1000,0.0,0.0,0.0,0.0,1010.86,25.9,19.917461,66.14368,21.580318,0.6614368,-2.8071187,0.7537512,0.1143022,-3.5759635,0.8247152,-0.04932776,0.03371351,-0.0074947546,0.32418823
15:17:16.919;-0.11492168,-0.49799395,7.967903,-0.0016981363,0.058437943,-0.014184937,10.948,-22.954,8.740001,244.83191,1000,1000,1000,1000,0.0,0.0,0.0,0.0,1010.86,25.9,19.917461,66.14368,21.580318,0.6614368,-2.8225172,0.755915,0.11569332,-3.5759635,0.8247152,-0.049349837,0.034473203,-0.007679159,0.32418823
15:17:16.942;-0.15322891,-0.5363012,7.967903,-0.30687392,-0.06363237,0.107885376,10.948,-22.954,8.740001,244.83191,1000,1000,1000,1000,0.0,0.0,0.0,0.0,1010.86,25.9,19.917461,34.074013,21.259623,0.3407401,-2.8499823,0.7613468,0.11693323,-3.8499293,1.0992197,-0.056407936,0.03300966,-0.008005412,0.32418823
15:17:16.951;-0.15322891,-0.5363012,7.967903,-0.30687392,-0.06363237,0.107885376,10.948,-22.954,8.740001,244.83191,1000,1000,1000,1000,0.0,0.0,0.0,0.0,1010.77997,25.9,20.583313,34.074013,21.259623,0.3407401,-2.8726878,0.7675431,0.11945132,-3.8499293,1.0992197,-0.0591698,0.032436967,-0.007034444,0.32418823
15:17:16.964;-0.11492168,-0.49799395,7.967903,0.120372176,-0.124667525,-0.25832558,10.948,-22.954,8.832,244.83191,1000,1000,1000,1000,0.0,0.0,0.0,0.0,1010.77997,25.9,20.583313,34.074013,21.259623,0.3407401,-2.8852198,0.76709825,0.12237884,-3.5759635,0.8247152,-0.05760496,0.030816289,-0.005631934,0.32418823
15:17:16.979;-0.11492168,-0.49799395,7.967903,0.120372176,-0.124667525,-0.25832558,10.948,-22.954,8.832,244.83191,1000,1000,1000,1000,0.0,0.0,0.0,0.0,1010.77997,25.9,20.583313,34.074013,21.259623,0.3407401,-2.8972652,0.7664179,0.120046586,-3.5759635,0.8247152,-0.05579938,0.028946277,-0.009506818,0.32418823
15:17:16.993;-0.11492168,-0.45968673,8.0445175,-0.0016981363,0.1194731,0.107885376,10.948,-22.954,8.832,244.83191,1000,1000,1000,1000,0.0,0.0,0.0,0.0,1010.8,25.9,20.416851,38.84299,21.307312,0.3884299,-2.9047463,0.7690712,0.117988214,-3.270155,0.8171227,-0.055823155,0.0306189,-0.013123376,0.32418823
15:17:17.008;-0.11492168,-0.45968673,8.0445175,-0.0016981363,0.1194731,0.107885376,10.948,-22.954,8.832,244.83191,1000,1000,1000,1000,0.0,0.0,0.0,0.0,1010.8,25.9,20.416851,38.84299,21.307312,0.3884299,-2.9120793,0.7717885,0.12114085,-3.270155,0.8171227,-0.05584863,0.032410998,-0.011505095,0.32418823
15:17:17.022;-0.15322891,-0.49799395,8.00621,0.05933702,-0.06363237,0.16892053,10.948,-22.954,8.832,244.83191,1000,1000,1000,1000,0.0,0.0,0.0,0.0,1010.8,25.9,20.416851,38.84299,21.307312,0.3884299,-2.924196,0.7773661,0.12416277,-3.5586169,1.0943217,-0.05501791,0.031520143,-0.0099947,0.32418823
15:17:17.036;-0.15322891,-0.49799395,8.00621,0.05933702,-0.06363237,0.16892053,10.948,-22.954,8.832,244.83191,1000,1000,1000,1000,0.0,0.0,0.0,0.0,1010.74,25.9,20.918882,63.655506,21.555437,0.6365551,-2.9360704,0.78283215,0.12801011,-3.5586169,1.0943217,-0.054187194,0.03062929,-0.0076298118,0.32418823
15:17:17.050;-0.15322891,-0.49799395,7.967903,-0.0016981363,0.18050826,-0.25832558,11.04,-22.862001,8.740001,244.96478,1000,1000,1000,1000,0.0,0.0,0.0,0.0,1010.74,25.9,20.918882,63.655506,21.555437,0.6365551,-2.948886,0.79164326,0.13083205,-3.575675,1.0995612,-0.05421097,0.033156406,-0.005264924,0.1913147
15:17:17.065;-0.15322891,-0.49799395,7.967903,-0.0016981363,0.18050826,-0.25832558,11.04,-22.862001,8.740001,244.96478,1000,1000,1000,1000,0.0,0.0,0.0,0.0,1010.74,25.9,20.918882,63.655506,21.555437,0.6365551,-2.9614468,0.80045503,0.12743984,-3.575675,1.0995612,-0.05423644,0.03586403,-0.009139808,0.1913147
15:17:17.078;-0.15322891,-0.49799395,8.0445175,-0.0016981363,-0.0025972128,0.29099083,11.04,-22.862001,8.740001,244.96478,1000,1000,1000,1000,0.0,0.0,0.0,0.0,1010.92,25.9,19.415428,63.655506,21.555437,0.6365551,-2.973074,0.8061955,0.12458585,-3.5417204,1.0891318,-0.054258518,0.035830267,-0.012498041,0.1913147
15:17:17.092;-0.15322891,-0.49799395,8.0445175,-0.0016981363,-0.0025972128,0.29099083,11.04,-22.862001,8.740001,244.96478,1000,1000,1000,1000,0.0,0.0,0.0,0.0,1010.92,25.9,19.415428,63.5864,21.554747,0.635864,-2.9844704,0.8118186,0.12912965,-3.5417204,1.0891318,-0.054282293,0.035793904,-0.008424168,0.1913147
15:17:17.106;-0.15322891,-0.49799395,8.00621,-0.06273329,0.058437943,-0.014184937,11.04,-22.954,8.832,244.97163,1000,1000,1000,1000,0.0,0.0,0.0,0.0,1010.92,25.9,19.415428,63.5864,21.554747,0.635864,-2.996814,0.81827044,0.13358797,-3.5586169,1.0943217,-0.05516056,0.036612034,-0.0043502967,0.1844635
15:17:17.120;-0.15322891,-0.49799395,8.00621,-0.06273329,0.058437943,-0.014184937,11.04,-22.954,8.832,244.97163,1000,1000,1000,1000,0.0,0.0,0.0,0.0,1010.86,25.9,19.917461,63.5864,21.554747,0.635864,-3.008911,0.82459325,0.13377243,-3.5586169,1.0943217,-0.056038827,0.037430163,-0.004548886,0.1844635
15:17:17.134;-0.11492168,-0.5363012,8.0445175,-0.12376845,-0.06363237,0.04685022,11.04,-22.954,8.832,244.97163,1000,1000,1000,1000,0.0,0.0,0.0,0.0,1010.86,25.9,19.917461,63.655506,21.555437,0.6365551,-3.0267045,0.82356125,0.13395551,-3.813687,0.816643,-0.057771586,0.03653931,-0.004747475,0.1844635
15:17:17.148;-0.11492168,-0.5363012,8.0445175,-0.12376845,-0.06363237,0.04685022,11.04,-22.954,8.832,244.97163,1000,1000,1000,1000,0.0,0.0,0.0,0.0,1010.86,25.9,19.917461,63.655506,21.555437,0.6365551,-3.0441425,0.8225499,0.1349853,-3.813687,0.816643,-0.059504345,0.035648454,-0.004091572,0.1844635
15:17:17.162;-0.38307226,-0.5363012,8.0445175,0.05933702,-0.06363237,-0.014184937,10.304,-23.321997,8.556,243.89264,1000,1000,1000,1000,0.0,0.0,0.0,0.0,1010.83997,25.9,20.083923,63.655506,21.555437,0.6365551,-3.058641,0.8596314,0.14409983,-3.8097708,2.7202816,-0.058673628,0.0347576,-0.003435669,1.2634583
15:17:17.176;-0.38307226,-0.5363012,8.0445175,0.05933702,-0.06363237,-0.014184937,10.304,-23.321997,8.556,243.89264,1000,1000,1000,1000,0.0,0.0,0.0,0.0,1010.83997,25.9,20.083923,63.655506,21.555437,0.6365551,-3.0728495,0.89597136,0.15229791,-3.8097708,2.7202816,-0.05784291,0.033866744,-0.0036342582,1.2634583
15:17:17.190;-0.2681506,-0.45968673,7.967903,-0.24583876,-0.06363237,-0.13625525,10.304,-23.321997,8.556,243.89264,1000,1000,1000,1000,0.0,0.0,0.0,0.0,1010.83997,25.9,20.083923,63.655506,21.555437,0.6365551,-3.0807655,0.91566485,0.16043451,-3.3000016,1.9242986,-0.061284654,0.03297589,-0.0038328473,1.2634583
15:17:17.204;-0.2681506,-0.45968673,7.967903,-0.24583876,-0.06363237,-0.13625525,10.304,-23.321997,8.556,243.89264,1000,1000,1000,1000,0.0,0.0,0.0,0.0,1010.86,25.9,19.917461,63.655506,21.555437,0.6365551,-3.0885231,0.9349645,0.16681392,-3.3000016,1.9242986,-0.0647264,0.032085035,-0.005740421,1.2634583
15:17:17.218;0.11492168,-0.5363012,8.082825,-0.12376845,0.1194731,-0.014184937,10.304,-23.321997,8.556,243.89264,1000,1000,1000,1000,0.0,0.0,0.0,0.0,1010.86,25.9,19.917461,63.655506,21.555437,0.6365551,-3.1043644,0.9016486,0.17314549,-3.7956693,-0.81279016,-0.06645916,0.033757657,-0.0076479944,1.2634583
15:17:17.232;0.11492168,-0.5363012,8.082825,-0.12376845,0.1194731,-0.014184937,10.304,-23.321997,8.556,243.89264,1000,1000,1000,1000,0.0,0.0,0.0,0.0,1010.86,25.9,19.917461,63.655506,21.555437,0.6365551,-3.1198888,0.868999,0.18112573,-3.7956693,-0.81279016,-0.068191916,0.03543028,-0.007846584,1.2634583
15:17:17.247;-0.30645782,-0.45968673,7.967903,-0.06273329,0.1194731,0.16892053,10.856,-23.321997,9.016001,244.72195,1000,1000,1000,1000,0.0,0.0,0.0,0.0,1010.77997,25.9,20.583313,63.655506,21.555437,0.6365551,-3.1244018,0.8973541,0.18281218,-3.2994316,2.1989453,-0.06913292,0.037222374,-0.008059357,0.43414307
15:17:17.262;-0.30645782,-0.45968673,7.967903,-0.06273329,0.1194731,0.16892053,10.856,-23.321997,9.016001,244.72195,1000,1000,1000,1000,0.0,0.0,0.0,0.0,1010.77997,25.9,20.583313,63.655506,21.555437,0.6365551,-3.1287632,0.9250251,0.18704431,-3.2994316,2.1989453,-0.07001118,0.038894996,-0.0056944694,0.43414307
15:17:17.275;-0.22984336,-0.5363012,8.121132,0.05933702,-0.18570268,-0.014184937,10.856,-23.321997,9.016001,244.72195,1000,1000,1000,1000,0.0,0.0,0.0,0.0,1010.77997,25.9,20.583313,66.14368,21.580318,0.6614368,-3.1409075,0.93632925,0.19124469,-3.77669,1.6176245,-0.069180466,0.036295157,-0.0033295818,0.43414307
15:17:17.289;-0.22984336,-0.5363012,8.121132,0.05933702,-0.18570268,-0.014184937,10.856,-23.321997,9.016001,244.72195,1000,1000,1000,1000,0.0,0.0,0.0,0.0,1010.83997,25.9,20.083923,66.14368,21.580318,0.6614368,-3.1528091,0.9474073,0.19286932,-3.77669,1.6176245,-0.06834975,0.033695318,-0.003528171,0.43414307
15:17:17.303;-0.15322891,-0.49799395,8.121132,-0.06273329,0.24154341,-0.014184937,11.132,-23.046,8.832,245.11789,1000,1000,1000,1000,0.0,0.0,0.0,0.0,1010.83997,25.9,20.083923,66.14368,21.580318,0.6614368,-3.1607819,0.9533511,0.19151227,-3.5084038,1.0788982,-0.069228016,0.037076924,-0.0037267602,0.038208008
15:17:17.317;-0.15322891,-0.49799395,8.121132,-0.06273329,0.24154341,-0.014184937,11.132,-23.046,8.832,245.11789,1000,1000,1000,1000,0.0,0.0,0.0,0.0,1010.83997,25.9,20.083923,66.14368,21.580318,0.6614368,-3.168595,0.959176,0.1901654,-3.5084038,1.0788982,-0.07010628,0.04045853,-0.003925349,0.038208008
15:17:17.332;-0.15322891,-0.45968673,8.082825,-0.24583876,-0.0025972128,-0.014184937,11.132,-23.046,8.832,245.11789,1000,1000,1000,1000,0.0,0.0,0.0,0.0,1010.86,25.9,19.917461,261.81006,23.536983,2.6181006,-3.1739259,0.9616401,0.18881455,-3.254438,1.0842942,-0.073793866,0.04041957,-0.0041381232,0.038208008
15:17:17.346;-0.15322891,-0.45968673,8.082825,-0.24583876,-0.0025972128,-0.014184937,11.132,-23.046,8.832,245.11789,1000,1000,1000,1000,0.0,0.0,0.0,0.0,1010.86,25.9,19.917461,261.81006,23.536983,2.6181006,-3.178909,0.96405756,0.18748792,-3.254438,1.0842942,-0.07723561,0.04038321,-0.0043367124,0.038208008
15:17:17.360;-0.11492168,-0.45968673,8.00621,-0.06273329,0.058437943,-0.014184937,11.132,-22.862001,8.740001,245.10489,1000,1000,1000,1000,0.0,0.0,0.0,0.0,1010.86,25.9,19.917461,261.81006,23.536983,2.6181006,-3.181907,0.9619986,0.18626872,-3.2857642,0.821019,-0.07811388,0.04120134,-0.0045353016,0.051208496
15:17:17.376;-0.11492168,-0.45968673,8.00621,-0.06273329,0.058437943,-0.014184937,11.132,-22.862001,8.740001,245.10489,1000,1000,1000,1000,0.0,0.0,0.0,0.0,1010.72,25.9,21.085346,261.81006,23.536983,2.6181006,-3.1849065,0.960038,0.18504459,-3.2857642,0.821019,-0.07905488,0.042077906,-0.0047480757,0.051208496
15:17:17.390;-0.15322891,-0.45968673,8.0445175,-0.06273329,-0.18570268,-0.014184937,11.132,-22.862001,8.740001,245.10489,1000,1000,1000,1000,0.0,0.0,0.0,0.0,1010.72,25.9,21.085346,261.81006,23.536983,2.6181006,-3.187467,0.9600782,0.18384372,-3.2698963,1.0894395,-0.079933144,0.039478067,-0.004946665,0.051208496
15:17:17.405;-0.15322891,-0.45968673,8.0445175,-0.06273329,-0.18570268,-0.014184937,11.132,-22.862001,8.740001,245.10489,1000,1000,1000,1000,0.0,0.0,0.0,0.0,1010.72,25.9,21.085346,261.87918,23.537674,2.6187918,-3.190038,0.95993555,0.18263778,-3.2698963,1.0894395,-0.080874145,0.036692526,-0.005159439,0.051208496
15:17:17.417;-0.11492168,-0.5363012,8.0445175,-0.06273329,0.42464888,0.53513145,11.132,-22.862001,8.740001,245.10489,1000,1000,1000,1000,0.0,0.0,0.0,0.0,1010.77997,25.9,20.583313,261.87918,23.537674,2.6187918,-3.2033103,0.96247977,0.18146904,-3.813687,0.816643,-0.08168968,0.042212963,-0.0053438433,0.051208496
15:17:17.431;-0.11492168,-0.5363012,8.0445175,-0.06273329,0.42464888,0.53513145,11.132,-22.862001,8.740001,245.10489,1000,1000,1000,1000,0.0,0.0,0.0,0.0,1010.77997,25.9,20.583313,261.87918,23.537674,2.6187918,-3.2163785,0.96538925,0.18792774,-3.813687,0.816643,-0.082567945,0.04815805,0.0021479973,0.051208496
15:17:17.445;-0.19153613,-0.61291564,8.0445175,-0.0016981363,0.24154341,-0.13625525,10.488,-23.597998,8.556,244.19482,1000,1000,1000,1000,0.0,0.0,0.0,0.0,1010.77997,25.9,20.583313,261.87918,23.537674,2.6187918,-3.2391891,0.9765952,0.20116347,-4.3557453,1.3599874,-0.08259172,0.051539656,0.009639838,0.9612732
15:17:17.459;-0.19153613,-0.61291564,8.0445175,-0.0016981363,0.24154341,-0.13625525,10.488,-23.597998,8.556,244.19482,1000,1000,1000,1000,0.0,0.0,0.0,0.0,1010.92,25.9,19.415428,261.87918,23.537674,2.6187918,-3.2615435,0.9875771,0.20497102,-4.3557453,1.3599874,-0.082615495,0.054921262,0.007732264,0.9612732
15:17:17.474;0.0,-0.61291564,8.082825,-0.06273329,-0.18570268,0.16892053,10.488,-23.597998,8.556,244.19482,1000,1000,1000,1000,0.0,0.0,0.0,0.0,1010.92,25.9,19.415428,41.400272,21.332886,0.41400272,-3.283963,0.9650957,0.20861477,-4.336405,-0.0,-0.083556496,0.05213572,0.0056884354,0.9612732
15:17:17.487;0.0,-0.61291564,8.082825,-0.06273329,-0.18570268,0.16892053,10.488,-23.597998,8.556,244.19482,1000,1000,1000,1000,0.0,0.0,0.0,0.0,1010.92,25.9,19.415428,41.400272,21.332886,0.41400272,-3.3058112,0.943428,0.2164392,-4.336405,-0.0,-0.08437203,0.049721587,0.007884402,0.9612732
15:17:17.501;-0.2681506,-0.45968673,7.967903,0.120372176,-0.06363237,-0.014184937,10.58,-23.505999,8.648,244.32376,1000,1000,1000,1000,0.0,0.0,0.0,0.0,1010.92,25.9,19.415428,41.400272,21.332886,0.41400272,-3.3040435,0.9621723,0.22340557,-3.3000016,1.9242986,-0.08268682,0.048830733,0.01024929,0.8323364
15:17:17.515;-0.2681506,-0.45968673,7.967903,0.120372176,-0.06363237,-0.014184937,10.58,-23.505999,8.648,244.32376,1000,1000,1000,1000,0.0,0.0,0.0,0.0,1010.92,25.9,19.415428,41.400272,21.332886,0.41400272,-3.3023112,0.9805418,0.22777544,-3.3000016,1.9242986,-0.08100161,0.047939878,0.010050701,0.8323364
15:17:17.529;-0.45968673,-0.45968673,7.8912888,-0.30687392,-0.0025972128,-0.25832558,10.58,-23.505999,8.648,244.32376,1000,1000,1000,1000,0.0,0.0,0.0,0.0,1010.92,25.9,19.415428,41.400272,21.332886,0.41400272,-3.3070397,1.0274597,0.23211254,-3.3282213,3.3282213,-0.085297845,0.047903515,0.009852112,0.8323364
15:17:17.543;-0.45968673,-0.45968673,7.8912888,-0.30687392,-0.0025972128,-0.25832558,10.58,-23.505999,8.648,244.32376,1000,1000,1000,1000,0.0,0.0,0.0,0.0,1010.89996,25.9,19.584534,41.400272,21.332886,0.41400272,-3.3116736,1.0734392,0.23302478,-3.3282213,3.3282213,-0.08959408,0.047867153,0.006235554,0.8323364
15:17:17.558;-0.19153613,-0.5746084,8.0445175,0.120372176,-0.06363237,0.04685022,11.408,-22.769999,8.648,245.5199,1000,1000,1000,1000,0.0,0.0,0.0,0.0,1010.89996,25.9,19.584534,9999999.0,19.584534,9999999.0,-3.3254778,1.0783067,0.22495916,-4.084463,1.3604627,-0.08790887,0.046976298,0.0026189957,-0.36380005
15:17:17.571;-0.19153613,-0.5746084,8.0445175,0.120372176,-0.06363237,0.04685022,11.408,-22.769999,8.648,245.5199,1000,1000,1000,1000,0.0,0.0,0.0,0.0,1010.89996,25.9,19.584534,9999999.0,19.584534,9999999.0,-3.339006,1.0830768,0.22119446,-4.084463,1.3604627,-0.08622366,0.046085443,0.0032748987,-0.36380005
15:17:17.585;-0.15322891,-0.5363012,7.967903,-0.0016981363,-0.06363237,0.352026,11.408,-22.769999,8.648,245.5199,1000,1000,1000,1000,0.0,0.0,0.0,0.0,1010.92,25.9,19.415428,9999999.0,19.415428,9999999.0,-3.3492477,1.0825266,0.217458,-3.8499293,1.0992197,-0.08624744,0.04519459,0.003930802,-0.36380005
15:17:17.600;-0.15322891,-0.5363012,7.967903,-0.0016981363,-0.06363237,0.352026,11.408,-22.769999,8.648,245.5199,1000,1000,1000,1000,0.0,0.0,0.0,0.0,1010.92,25.9,19.415428,9999999.0,19.415428,9999999.0,-3.3592863,1.0819249,0.21833935,-3.8499293,1.0992197,-0.08627291,0.044240102,0.009211192,-0.36380005
15:17:17.614;-0.22984336,-0.4213795,7.967903,0.05933702,0.058437943,-0.6245365,11.408,-22.769999,8.648,245.5199,1000,1000,1000,1000,0.0,0.0,0.0,0.0,1010.92,25.9,19.415428,38.84299,21.307312,0.3884299,-3.3518646,1.094031,0.21851534,-3.0259888,1.6500002,-0.08550153,0.044999797,0.01378753,-0.36380005
15:17:17.628;-0.22984336,-0.4213795,7.967903,0.05933702,0.058437943,-0.6245365,11.408,-22.769999,8.648,245.5199,1000,1000,1000,1000,0.0,0.0,0.0,0.0,1010.89996,25.9,19.584534,38.84299,21.307312,0.3884299,-3.344533,1.1059521,0.20547004,-3.0259888,1.6500002,-0.08467081,0.045817927,0.005044019,-0.36380005
15:17:17.642;-0.19153613,-0.49799395,8.0445175,-0.24583876,0.18050826,0.29099083,11.132,-23.137999,8.740001,245.12433,1000,1000,1000,1000,0.0,0.0,0.0,0.0,1010.89996,25.9,19.584534,38.84299,21.307312,0.3884299,-3.3520834,1.113713,0.1948695,-3.5413601,1.3613225,-0.088358395,0.04852555,-0.0043240283,0.0317688
15:17:17.656;-0.19153613,-0.49799395,8.0445175,-0.24583876,0.18050826,0.29099083,11.132,-23.137999,8.740001,245.12433,1000,1000,1000,1000,0.0,0.0,0.0,0.0,1010.89996,25.9,19.584534,41.331158,21.332193,0.41331157,-3.359242,1.1211418,0.19768958,-3.5413601,1.3613225,-0.09180014,0.051052663,-2.501565E-4,0.0317688
15:17:17.671;-0.11492168,-0.49799395,8.00621,0.18140733,0.24154341,0.107885376,11.132,-23.137999,8.740001,245.12433,1000,1000,1000,1000,0.0,0.0,0.0,0.0,1010.77997,25.9,20.583313,41.331158,21.332193,0.41331157,-3.3605685,1.1186854,0.2007773,-3.558901,0.8207849,-0.08907903,0.054675814,0.004114706,0.0317688
15:17:17.685;-0.11492168,-0.49799395,8.00621,0.18140733,0.24154341,0.107885376,11.132,-23.137999,8.740001,245.12433,1000,1000,1000,1000,0.0,0.0,0.0,0.0,1010.77997,25.9,20.583313,41.331158,21.332193,0.41331157,-3.3620462,1.1160414,0.20100881,-3.558901,0.8207849,-0.08653933,0.05805742,0.0056251013,0.0317688
15:17:17.699;-0.076614454,-0.4213795,8.082825,-0.12376845,-0.24673784,-0.44143105,10.58,-23.782,8.832,244.34845,1000,1000,1000,1000,0.0,0.0,0.0,0.0,1010.77997,25.9,20.583313,41.331158,21.332193,0.41331157,-3.3561864,1.1011821,0.20705767,-2.9841485,0.5423353,-0.08827209,0.05460309,0.0071354965,0.8076477
15:17:17.714;-0.076614454,-0.4213795,8.082825,-0.12376845,-0.24673784,-0.44143105,10.58,-23.782,8.832,244.34845,1000,1000,1000,1000,0.0,0.0,0.0,0.0,1010.92,25.9,19.415428,41.331158,21.332193,0.41331157,-3.350565,1.0863781,0.20499028,-2.9841485,0.5423353,-0.090128615,0.05090202,5.140309E-4,0.8076477
15:17:17.729;-0.30645782,-0.5363012,8.00621,-0.1848036,0.24154341,0.5961666,10.58,-23.782,8.832,244.34845,1000,1000,1000,1000,0.0,0.0,0.0,0.0,1010.92,25.9,19.415428,41.331158,21.332193,0.41331157,-3.3628597,1.1119446,0.20293841,-3.829474,2.1871731,-0.09290067,0.05452517,-0.0061074346,0.8076477
15:17:17.744;-0.30645782,-0.5363012,8.00621,-0.1848036,0.24154341,0.5961666,10.58,-23.782,8.832,244.34845,1000,1000,1000,1000,0.0,0.0,0.0,0.0,1010.92,25.9,19.415428,41.331158,21.332193,0.41331157,-3.3749087,1.1369997,0.21634915,-3.829474,2.1871731,-0.09567273,0.05814832,0.0028350642,0.8076477
15:17:17.759;0.15322891,-0.5746084,8.274361,0.30347764,0.30257857,-0.13625525,10.672,-23.597998,8.924,244.4693,1000,1000,1000,1000,0.0,0.0,0.0,0.0,1010.83997,25.9,20.083923,41.331158,21.332193,0.41331157,-3.3826833,1.0972439,0.22816125,-3.9718173,-1.0583634,-0.09142404,0.06238442,0.011181397,0.6867981
15:17:17.772;0.15322891,-0.5746084,8.274361,0.30347764,0.30257857,-0.13625525,10.672,-23.597998,8.924,244.4693,1000,1000,1000,1000,0.0,0.0,0.0,0.0,1010.83997,25.9,20.083923,41.331158,21.332193,0.41331157,-3.3903024,1.0582831,0.22970775,-3.9718173,-1.0583634,-0.087175354,0.06662052,0.009273823,0.6867981
15:17:17.785;-0.4213795,-0.4213795,7.8912888,-0.30687392,-0.06363237,-0.1972904,10.672,-23.597998,8.924,244.4693,1000,1000,1000,1000,0.0,0.0,0.0,0.0,1010.83997,25.9,20.083923,41.331158,21.332193,0.41331157,-3.3874507,1.0973516,0.23137788,-3.0522404,3.0522404,-0.091164716,0.0657933,0.007502505,0.6867981
15:17:17.799;-0.4213795,-0.4213795,7.8912888,-0.30687392,-0.06363237,-0.1972904,10.672,-23.597998,8.924,244.4693,1000,1000,1000,1000,0.0,0.0,0.0,0.0,1010.74,25.9,20.918882,9999999.0,20.918882,9999999.0,-3.3849568,1.1355762,0.23205218,-3.0522404,3.0522404,-0.09546095,0.06490245,0.0047404394,0.6867981
15:17:17.813;-0.11492168,-0.5363012,8.159439,0.24244249,0.18050826,0.352026,10.672,-23.597998,8.924,244.4693,1000,1000,1000,1000,0.0,0.0,0.0,0.0,1010.74,25.9,20.918882,9999999.0,20.918882,9999999.0,-3.3891342,1.1314452,0.23272142,-3.760139,0.8051923,-0.09206676,0.067429565,0.0019783736,0.6867981
15:17:17.827;-0.11492168,-0.5363012,8.159439,0.24244249,0.18050826,0.352026,10.672,-23.597998,8.924,244.4693,1000,1000,1000,1000,0.0,0.0,0.0,0.0,1010.74,25.9,20.918882,38.84299,21.307312,0.3884299,-3.393228,1.1273967,0.24101838,-3.760139,0.8051923,-0.08867256,0.06995668,0.0069067376,0.6867981
15:17:17.841;-0.19153613,-0.49799395,8.00621,-0.0016981363,-0.06363237,-0.13625525,11.316,-22.862001,8.648,245.38522,1000,1000,1000,1000,0.0,0.0,0.0,0.0,1010.94,25.9,19.248966,38.84299,21.307312,0.3884299,-3.3965518,1.1313319,0.2423837,-3.5582514,1.3678086,-0.08869634,0.06906583,0.011835102,-0.22912598
15:17:17.856;-0.19153613,-0.49799395,8.00621,-0.0016981363,-0.06363237,-0.13625525,11.316,-22.862001,8.648,245.38522,1000,1000,1000,1000,0.0,0.0,0.0,0.0,1010.94,25.9,19.248966,38.84299,21.307312,0.3884299,-3.3998108,1.135126,0.23681888,-3.5582514,1.3678086,-0.08872181,0.068111345,0.009791274,-0.22912598
15:17:17.873;-0.2681506,-0.49799395,7.8529816,-0.0016981363,-0.06363237,-0.25832558,11.316,-22.862001,8.648,245.38522,1000,1000,1000,1000,0.0,0.0,0.0,0.0,1010.94,25.9,19.248966,38.84299,21.307312,0.3884299,-3.4043696,1.1504608,0.23116057,-3.6264243,1.951764,-0.088748984,0.06709323,0.0076111895,-0.22912598
15:17:17.886;-0.2681506,-0.49799395,7.8529816,-0.0016981363,-0.06363237,-0.25832558,11.316,-22.862001,8.648,245.38522,1000,1000,1000,1000,0.0,0.0,0.0,0.0,1010.83997,25.9,20.083923,38.84299,21.307312,0.3884299,-3.4088323,1.1656762,0.22437537,-3.6264243,1.951764,-0.08877106,0.06626601,0.004252957,-0.22912598
15:17:17.899;-0.15322891,-0.45968673,8.0445175,-0.06273329,0.1194731,0.4740963,11.132,-23.046,8.832,245.11789,1000,1000,1000,1000,0.0,0.0,0.0,0.0,1010.83997,25.9,20.083923,66.14368,21.580318,0.6614368,-3.4069145,1.1657907,0.21938969,-3.2698963,1.0894395,-0.08964933,0.06793863,6.36399E-4,0.038208008
15:17:17.914;-0.15322891,-0.45968673,8.0445175,-0.06273329,0.1194731,0.4740963,11.132,-23.046,8.832,245.11789,1000,1000,1000,1000,0.0,0.0,0.0,0.0,1010.83997,25.9,20.083923,66.14368,21.580318,0.6614368,-3.4050965,1.1660198,0.22508894,-3.2698963,1.0894395,-0.09059033,0.06973073,0.007747843,0.038208008
15:17:17.928;-0.15322891,-0.49799395,7.967903,-0.06273329,-0.06363237,-0.3803959,11.132,-23.046,8.832,245.11789,1000,1000,1000,1000,0.0,0.0,0.0,0.0,1010.8,25.9,20.416851,66.14368,21.580318,0.6614368,-3.4093688,1.1638176,0.2302749,-3.575675,1.0995612,-0.091468595,0.06883988,0.014385192,0.038208008
15:17:17.942;-0.15322891,-0.49799395,7.967903,-0.06273329,-0.06363237,-0.3803959,11.132,-23.046,8.832,245.11789,1000,1000,1000,1000,0.0,0.0,0.0,0.0,1010.8,25.9,20.416851,66.14368,21.580318,0.6614368,-3.413494,1.161722,0.22392635,-3.575675,1.0995612,-0.09228413,0.068012655,0.009440045,0.038208008
15:17:17.957;-0.038307227,-0.49799395,8.0445175,-0.0016981363,-0.06363237,-0.1972904,10.948,-23.137999,8.740001,244.84618,1000,1000,1000,1000,0.0,0.0,0.0,0.0,1010.8,25.9,20.416851,66.14368,21.580318,0.6614368,-3.4160972,1.142936,0.21853063,-3.5423212,0.2723137,-0.0923113,0.06699454,0.0033537103,0.30992126
15:17:17.971;-0.038307227,-0.49799395,8.0445175,-0.0016981363,-0.06363237,-0.1972904,10.948,-23.137999,8.740001,244.84618,1000,1000,1000,1000,0.0,0.0,0.0,0.0,1010.8,25.9,20.416851,46.30748,21.381958,0.4630748,-3.418645,1.1246506,0.2164747,-3.5423212,0.2723137,-0.092335075,0.06610369,5.9164455E-4,0.30992126
15:17:17.986;-0.076614454,-0.45968673,8.0445175,-0.0016981363,0.1194731,0.53513145,10.948,-23.137999,8.740001,244.84618,1000,1000,1000,1000,0.0,0.0,0.0,0.0,1010.8,25.9,20.416851,46.30748,21.381958,0.4630748,-3.4157038,1.1148092,0.21423838,-3.27034,0.544769,-0.09236055,0.067895785,-0.0023677114,0.30992126
15:17:18.000;-0.076614454,-0.45968673,8.0445175,-0.0016981363,0.1194731,0.53513145,10.948,-23.137999,8.740001,244.84618,1000,1000,1000,1000,0.0,0.0,0.0,0.0,1010.8,25.9,20.416851,38.91211,21.308004,0.3891211,-3.4128199,1.1050476,0.22239165,-3.27034,0.544769,-0.09238432,0.06956841,0.0051241294,0.30992126
15:17:18.014;-0.11492168,-0.49799395,8.00621,-0.1848036,0.1194731,-0.5024662,10.948,-23.046,8.740001,244.83905,1000,1000,1000,1000,0.0,0.0,0.0,0.0,1010.77997,25.9,20.583313,38.91211,21.308004,0.3891211,-3.418277,1.1010015,0.23053722,-3.558901,0.8207849,-0.094971575,0.071241036,0.012615969,0.31704712
15:17:18.028;-0.11492168,-0.49799395,8.00621,-0.1848036,0.1194731,-0.5024662,10.948,-23.046,8.740001,244.83905,1000,1000,1000,1000,0.0,0.0,0.0,0.0,1010.77997,25.9,20.583313,38.91211,21.308004,0.3891211,-3.423625,1.0970364,0.22420429,-3.558901,0.8207849,-0.097558826,0.07291366,0.0055814423,0.31704712
15:17:18.042;-0.076614454,-0.5363012,8.0445175,-0.24583876,0.058437943,0.22995569,10.948,-23.046,8.740001,244.83905,1000,1000,1000,1000,0.0,0.0,0.0,0.0,1010.77997,25.9,20.583313,38.91211,21.308004,0.3891211,-3.4348035,1.0867864,0.21791884,-3.8139026,0.54444915,-0.10100057,0.073731795,-0.0014530849,0.31704712
15:17:18.057;-0.076614454,-0.5363012,8.0445175,-0.24583876,0.058437943,0.22995569,10.948,-23.046,8.740001,244.83905,1000,1000,1000,1000,0.0,0.0,0.0,0.0,1010.86,25.9,19.917461,38.91211,21.308004,0.3891211,-3.4459994,1.0767987,0.22208577,-3.8139026,0.54444915,-0.10468815,0.07460836,0.0019962504,0.31704712
15:17:18.072;-0.076614454,-0.5363012,8.082825,0.30347764,0.30257857,0.29099083,10.948,-23.046,8.740001,244.83905,1000,1000,1000,1000,0.0,0.0,0.0,0.0,1010.86,25.9,19.917461,38.84299,21.307312,0.3884299,-3.448536,1.0705482,0.22622146,-3.7958817,0.5418803,-0.10013599,0.07914704,0.0054455856,0.31704712
15:17:18.088;-0.076614454,-0.5363012,8.082825,0.30347764,0.30257857,0.29099083,10.948,-23.046,8.740001,244.83905,1000,1000,1000,1000,0.0,0.0,0.0,0.0,1010.86,25.9,19.917461,38.84299,21.307312,0.3884299,-3.4507241,1.0647192,0.23152359,-3.7958817,0.5418803,-0.09528035,0.0839883,0.010101439,0.31704712
15:17:18.101;-0.076614454,-0.5363012,7.967903,-0.1848036,-0.0025972128,-0.31936073,10.948,-23.046,8.832,244.83905,1000,1000,1000,1000,0.0,0.0,0.0,0.0,1010.86,25.9,19.917461,38.91211,21.308004,0.3891211,-3.4610734,1.0543851,0.23591952,-3.8504615,0.5496604,-0.0976828,0.083954535,0.013884321,0.31704712
15:17:18.115;-0.076614454,-0.5363012,7.967903,-0.1848036,-0.0025972128,-0.31936073,10.948,-23.046,8.832,244.83905,1000,1000,1000,1000,0.0,0.0,0.0,0.0,1010.86,25.9,19.917461,38.91211,21.308004,0.3891211,-3.4713967,1.044255,0.23209046,-3.8504615,0.5496604,-0.10027005,0.08391818,0.00941327,0.31704712
15:17:18.130;-0.19153613,-0.5363012,7.929596,-0.1848036,0.058437943,0.41306114,10.948,-23.046,8.832,244.83905,1000,1000,1000,1000,0.0,0.0,0.0,0.0,1010.86,25.9,19.917461,38.91211,21.308004,0.3891211,-3.4820466,1.0518396,0.22797315,-3.8680599,1.3805343,-0.1030421,0.084794745,0.0046228594,0.31704712
15:17:18.143;-0.19153613,-0.5363012,7.929596,-0.1848036,0.058437943,0.41306114,10.948,-23.046,8.832,244.83905,1000,1000,1000,1000,0.0,0.0,0.0,0.0,1010.8,25.9,20.416851,38.91211,21.308004,0.3891211,-3.4921212,1.059158,0.23397073,-3.8680599,1.3805343,-0.10544455,0.085554436,0.009992654,0.31704712
15:17:18.157;-0.038307227,-0.49799395,8.082825,-0.0016981363,0.24154341,0.22995569,10.948,-23.046,8.832,244.83905,1000,1000,1000,1000,0.0,0.0,0.0,0.0,1010.8,25.9,20.416851,38.91211,21.308004,0.3891211,-3.4928136,1.0467094,0.24033329,-3.5255756,0.27102804,-0.105468325,0.088936046,0.015775511,0.31704712
15:17:18.172;-0.038307227,-0.49799395,8.082825,-0.0016981363,0.24154341,0.22995569,10.948,-23.046,8.832,244.83905,1000,1000,1000,1000,0.0,0.0,0.0,0.0,1010.8,25.9,20.416851,38.91211,21.308004,0.3891211,-3.4934938,1.0347465,0.2443321,-3.5255756,0.27102804,-0.1054938,0.092559196,0.019224847,0.31704712
15:17:18.185;-0.19153613,-0.4213795,7.8912888,-0.1848036,-0.06363237,-0.5024662,10.948,-23.046,8.832,244.83905,1000,1000,1000,1000,0.0,0.0,0.0,0.0,1010.8,25.9,20.416851,38.91211,21.308004,0.3891211,-3.487092,1.0410094,0.24784447,-3.0556822,1.3884239,-0.107896246,0.09173197,0.022214271,0.31704712
15:17:18.199;-0.19153613,-0.4213795,7.8912888,-0.1848036,-0.06363237,-0.5024662,10.948,-23.046,8.832,244.83905,1000,1000,1000,1000,0.0,0.0,0.0,0.0,1010.8,25.9,20.416851,36.354828,21.28243,0.36354828,-3.4809995,1.0470847,0.24138173,-3.0556822,1.3884239,-0.1104835,0.09084112,0.015179744,0.31704712
15:17:18.213;-0.076614454,-0.5363012,8.082825,0.120372176,0.24154341,0.22995569,11.04,-22.954,8.740001,244.97163,1000,1000,1000,1000,0.0,0.0,0.0,0.0,1010.8,25.9,20.416851,36.354828,21.28243,0.36354828,-3.4856455,1.0402945,0.23397307,-3.7958817,0.5418803,-0.10879829,0.09422273,0.008145217,0.1844635
15:17:18.227;-0.076614454,-0.5363012,8.082825,0.120372176,0.24154341,0.22995569,11.04,-22.954,8.740001,244.97163,1000,1000,1000,1000,0.0,0.0,0.0,0.0,1010.92,26.0,19.415428,36.354828,21.28243,0.36354828,-3.4901986,1.0336401,0.23679698,-3.7958817,0.5418803,-0.10711308,0.09760434,0.011364597,0.1844635
15:17:18.241;-0.11492168,-0.49799395,7.8912888,-0.12376845,-0.0025972128,-0.014184937,11.04,-22.954,8.740001,244.97163,1000,1000,1000,1000,0.0,0.0,0.0,0.0,1010.92,26.0,19.415428,38.91211,21.308004,0.3891211,-3.4943044,1.0295855,0.2395997,-3.6105828,0.8326894,-0.10884584,0.09756798,0.014583977,0.1844635
15:17:18.256;-0.11492168,-0.49799395,7.8912888,-0.12376845,-0.0025972128,-0.014184937,11.04,-22.954,8.740001,244.97163,1000,1000,1000,1000,0.0,0.0,0.0,0.0,1010.92,26.0,19.415428,38.91211,21.308004,0.3891211,-3.4984493,1.0256094,0.238975,-3.6105828,0.8326894,-0.110702366,0.097529024,0.014371203,0.1844635
15:17:18.269;-0.15322891,-0.45968673,7.929596,0.120372176,0.1194731,-0.25832558,11.04,-22.954,8.740001,244.97163,1000,1000,1000,1000,0.0,0.0,0.0,0.0,1010.92,25.9,19.415428,38.91211,21.308004,0.3891211,-3.4932902,1.0287228,0.23838314,-3.3171632,1.105172,-0.10913753,0.09908217,0.0141867995,0.1844635
15:17:18.284;-0.15322891,-0.45968673,7.929596,0.120372176,0.1194731,-0.25832558,11.04,-22.954,8.740001,244.97163,1000,1000,1000,1000,0.0,0.0,0.0,0.0,1010.92,25.9,19.415428,36.423943,21.283121,0.36423942,-3.4881163,1.031891,0.2343893,-3.3171632,1.105172,-0.10745232,0.1007548,0.010570241,0.1844635
15:17:18.298;-0.15322891,-0.49799395,8.00621,-0.30687392,-0.0025972128,0.41306114,11.04,-22.954,8.740001,244.97163,1000,1000,1000,1000,0.0,0.0,0.0,0.0,1010.92,25.9,19.415428,36.423943,21.283121,0.36423942,-3.4940374,1.0331014,0.23016903,-3.5586169,1.0943217,-0.11205543,0.10071584,0.0066953576,0.1844635
15:17:18.311;-0.15322891,-0.49799395,8.00621,-0.30687392,-0.0025972128,0.41306114,11.04,-22.954,8.740001,244.97163,1000,1000,1000,1000,0.0,0.0,0.0,0.0,1010.92,25.9,19.415428,36.423943,21.283121,0.36423942,-3.4992387,1.0342928,0.23515576,-3.5586169,1.0943217,-0.11604479,0.10068207,0.012065153,0.1844635
15:17:18.326;-0.076614454,-0.5363012,7.967903,-0.0016981363,-0.0025972128,-0.25832558,11.04,-22.954,8.740001,244.97163,1000,1000,1000,1000,0.0,0.0,0.0,0.0,1010.92,25.9,19.415428,36.423943,21.283121,0.36423942,-3.5062883,1.024562,0.24092501,-3.8504615,0.5496604,-0.11607026,0.10064311,0.01826107,0.1844635
15:17:18.340;-0.076614454,-0.5363012,7.967903,-0.0016981363,-0.0025972128,-0.25832558,11.04,-22.954,8.740001,244.97163,1000,1000,1000,1000,0.0,0.0,0.0,0.0,1010.92,25.9,19.415428,36.423943,21.283121,0.36423942,-3.5131953,1.0150284,0.23691212,-3.8504615,0.5496604,-0.11609404,0.100606754,0.014644511,0.1844635
15:17:18.355;-0.11492168,-0.45968673,7.967903,0.05933702,-0.06363237,0.107885376,11.04,-22.862001,8.832,244.96478,1000,1000,1000,1000,0.0,0.0,0.0,0.0,1010.8,25.9,20.416851,36.354828,21.28243,0.36354828,-3.508148,1.0103538,0.23298071,-3.3015232,0.8249526,-0.11526332,0.0997159,0.011027953,0.1913147
15:17:18.368;-0.11492168,-0.45968673,7.967903,0.05933702,-0.06363237,0.107885376,11.04,-22.862001,8.832,244.96478,1000,1000,1000,1000,0.0,0.0,0.0,0.0,1010.8,25.9,20.416851,36.354828,21.28243,0.36354828,-3.5032015,1.0057727,0.2341673,-3.3015232,0.8249526,-0.1144326,0.09882505,0.012538348,0.1913147
15:17:18.382;-0.11492168,-0.49799395,8.0445175,-0.06273329,-0.0025972128,0.22995569,11.04,-22.862001,8.832,244.96478,1000,1000,1000,1000,0.0,0.0,0.0,0.0,1010.8,25.9,20.416851,38.84299,21.307312,0.3884299,-3.5048382,1.0019594,0.23534498,-3.5420008,0.81689197,-0.11531087,0.09878869,0.014048744,0.1913147
15:17:18.396;-0.11492168,-0.49799395,8.0445175,-0.06273329,-0.0025972128,0.22995569,11.04,-22.862001,8.832,244.96478,1000,1000,1000,1000,0.0,0.0,0.0,0.0,1010.86,25.9,19.917461,38.84299,21.307312,0.3884299,-3.506442,0.9982225,0.23821,-3.5420008,0.81689197,-0.11618914,0.098752335,0.017268123,0.1913147
15:17:18.411;-0.15322891,-0.49799395,8.00621,-0.12376845,-0.06363237,-0.3803959,10.856,-22.954,8.740001,244.6922,1000,1000,1000,1000,0.0,0.0,0.0,0.0,1010.86,25.9,19.917461,38.84299,21.307312,0.3884299,-3.509305,0.99920905,0.24332611,-3.5586169,1.0943217,-0.118045665,0.09779785,0.020717459,0.4638977
15:17:18.426;-0.15322891,-0.49799395,8.00621,-0.12376845,-0.06363237,-0.3803959,10.856,-22.954,8.740001,244.6922,1000,1000,1000,1000,0.0,0.0,0.0,0.0,1010.86,25.9,19.917461,38.84299,21.307312,0.3884299,-3.5121107,1.000176,0.23931725,-3.5586169,1.0943217,-0.11990219,0.09684336,0.015011521,0.4638977
15:17:18.440;-0.15322891,-0.45968673,7.967903,0.05933702,0.18050826,0.29099083,10.856,-22.954,8.740001,244.6922,1000,1000,1000,1000,0.0,0.0,0.0,0.0,1010.74,25.9,20.918882,38.84299,21.307312,0.3884299,-3.5070796,1.0046465,0.235716,-3.3012567,1.0998777,-0.119071476,0.09937048,0.009685978,0.4638977
15:17:18.455;-0.15322891,-0.45968673,7.967903,0.05933702,0.18050826,0.29099083,10.856,-22.954,8.740001,244.6922,1000,1000,1000,1000,0.0,0.0,0.0,0.0,1010.74,25.9,20.918882,36.423943,21.283121,0.36423942,-3.502091,1.0092046,0.24175948,-3.3012567,1.0998777,-0.11818142,0.1020781,0.014050841,0.4638977
15:17:18.468;-0.038307227,-0.5363012,8.0445175,0.18140733,0.1194731,-0.014184937,10.856,-22.954,8.740001,244.6922,1000,1000,1000,1000,0.0,0.0,0.0,0.0,1010.74,25.9,20.918882,36.423943,21.283121,0.36423942,-3.5060186,0.99598724,0.24718003,-3.8140318,0.2722307,-0.11582313,0.10363125,0.017833723,0.4638977
15:17:18.482;-0.038307227,-0.5363012,8.0445175,0.18140733,0.1194731,-0.014184937,10.856,-22.954,8.740001,244.6922,1000,1000,1000,1000,0.0,0.0,0.0,0.0,1010.8,25.9,20.416851,38.84299,21.307312,0.3884299,-3.50969,0.98315126,0.2486083,-3.8140318,0.2722307,-0.113283426,0.105303876,0.017635133,0.4638977
15:17:18.496;-0.15322891,-0.45968673,7.967903,-0.12376845,-0.06363237,-0.1972904,11.04,-22.954,8.648,244.97163,1000,1000,1000,1000,0.0,0.0,0.0,0.0,1010.8,25.9,20.416851,38.84299,21.307312,0.3884299,-3.5072196,0.9846127,0.24793011,-3.3012567,1.0998777,-0.115016185,0.104413025,0.017436543,0.1844635
15:17:18.510;-0.15322891,-0.45968673,7.967903,-0.12376845,-0.06363237,-0.1972904,11.04,-22.954,8.648,244.97163,1000,1000,1000,1000,0.0,0.0,0.0,0.0,1010.8,25.9,20.416851,38.84299,21.307312,0.3884299,-3.5047984,0.98604494,0.24471276,-3.3012567,1.0998777,-0.116748944,0.103522174,0.014674477,0.1844635
15:17:18.524;-0.076614454,-0.5363012,8.0445175,-0.12376845,0.058437943,0.41306114,11.04,-22.954,8.648,244.97163,1000,1000,1000,1000,0.0,0.0,0.0,0.0,1010.86,25.9,19.917461,38.84299,21.307312,0.3884299,-3.5126786,0.9780148,0.24151953,-3.8139026,0.54444915,-0.1184817,0.10434031,0.011912411,0.1844635
15:17:18.538;-0.076614454,-0.5363012,8.0445175,-0.12376845,0.058437943,0.41306114,11.04,-22.954,8.648,244.97163,1000,1000,1000,1000,0.0,0.0,0.0,0.0,1010.86,25.9,19.917461,38.84299,21.307312,0.3884299,-3.5204012,0.9701453,0.24683109,-3.8139026,0.54444915,-0.12021446,0.10515844,0.017695267,0.1844635
15:17:18.552;-0.15322891,-0.45968673,8.082825,-0.06273329,-0.24673784,-0.13625525,9.66,-22.862001,9.752,242.86807,1000,1000,1000,1000,0.0,0.0,0.0,0.0,1010.86,25.9,19.917461,38.91211,21.308004,0.3891211,-3.5159428,0.969043,0.26787952,-3.254438,1.0842942,-0.12109273,0.10170411,0.023478122,2.288025
15:17:18.567;-0.15322891,-0.45968673,8.082825,-0.06273329,-0.24673784,-0.13625525,9.66,-22.862001,9.752,242.86807,1000,1000,1000,1000,0.0,0.0,0.0,0.0,1010.8,25.9,20.416851,38.91211,21.308004,0.3891211,-3.5115736,0.9679628,0.28113732,-3.254438,1.0842942,-0.121970996,0.098249786,0.021570548,2.288025
15:17:18.581;-0.11492168,-0.49799395,7.967903,-0.06273329,0.058437943,0.04685022,9.66,-22.862001,9.752,242.86807,1000,1000,1000,1000,0.0,0.0,0.0,0.0,1010.8,25.9,20.416851,38.91211,21.308004,0.3891211,-3.513722,0.9658996,0.2942957,-3.5759635,0.8247152,-0.12284926,0.09906792,0.019662974,2.288025
15:17:18.595;-0.11492168,-0.49799395,7.967903,-0.06273329,0.058437943,0.04685022,9.66,-22.862001,9.752,242.86807,1000,1000,1000,1000,0.0,0.0,0.0,0.0,1010.8,25.9,20.416851,38.91211,21.308004,0.3891211,-3.5158274,0.9638777,0.30989963,-3.5759635,0.8247152,-0.12372753,0.09988605,0.020318877,2.288025
15:17:18.608;-0.076614454,-0.5363012,8.082825,0.30347764,-0.24673784,0.29099083,9.752,-22.769999,9.752,242.99586,1000,1000,1000,1000,0.0,0.0,0.0,0.0,1010.83997,25.9,20.083923,38.91211,21.308004,0.3891211,-3.5172648,0.95205253,0.32442808,-3.7958817,0.5418803,-0.119478844,0.096431725,0.02097478,2.1602325
15:17:18.623;-0.076614454,-0.5363012,8.082825,0.30347764,-0.24673784,0.29099083,9.752,-22.769999,9.752,242.99586,1000,1000,1000,1000,0.0,0.0,0.0,0.0,1010.83997,25.9,20.083923,38.91211,21.308004,0.3891211,-3.5186734,0.9404639,0.34223992,-3.7958817,0.5418803,-0.11523016,0.0929774,0.02504865,2.1602325
15:17:18.638;-0.15322891,-0.49799395,8.00621,-0.24583876,0.18050826,-0.44143105,9.752,-22.769999,9.752,242.99586,1000,1000,1000,1000,0.0,0.0,0.0,0.0,1010.83997,25.9,20.083923,38.91211,21.308004,0.3891211,-3.523327,0.94637144,0.3604958,-3.5586169,1.0943217,-0.11916358,0.09586553,0.029704504,2.1602325
15:17:18.651;-0.15322891,-0.49799395,8.00621,-0.24583876,0.18050826,-0.44143105,9.752,-22.769999,9.752,242.99586,1000,1000,1000,1000,0.0,0.0,0.0,0.0,1010.74,25.9,20.918882,38.91211,21.308004,0.3891211,-3.527165,0.9516301,0.36829826,-3.5586169,1.0943217,-0.122359484,0.09821214,0.023965899,2.1602325
15:17:18.665;-0.076614454,-0.5363012,8.00621,0.120372176,0.18050826,0.352026,9.752,-22.769999,9.752,242.99586,1000,1000,1000,1000,0.0,0.0,0.0,0.0,1010.74,25.9,20.918882,38.91211,21.308004,0.3891211,-3.5316122,0.94601494,0.37560406,-3.832095,0.54704237,-0.120674275,0.100739256,0.017785864,2.1602325
15:17:18.684;-0.076614454,-0.5363012,8.00621,0.120372176,0.18050826,0.352026,9.752,-22.769999,9.752,242.99586,1000,1000,1000,1000,0.0,0.0,0.0,0.0,1010.74,25.9,20.918882,38.91211,21.308004,0.3891211,-3.5353804,0.9413966,0.3956271,-3.832095,0.54704237,-0.11838721,0.104168914,0.024474356,2.1602325
15:17:18.698;-0.11492168,-0.49799395,8.00621,0.05933702,-0.124667525,0.107885376,9.752,-22.678,9.844,242.98416,1000,1000,1000,1000,0.0,0.0,0.0,0.0,1010.86,25.9,19.917461,38.91211,21.308004,0.3891211,-3.535095,0.9373961,0.41349143,-3.558901,0.8207849,-0.11761583,0.102548234,0.029050695,2.171936
15:17:18.711;-0.11492168,-0.49799395,8.00621,0.05933702,-0.124667525,0.107885376,9.752,-22.678,9.844,242.98416,1000,1000,1000,1000,0.0,0.0,0.0,0.0,1010.86,25.9,19.917461,38.91211,21.308004,0.3891211,-3.5347571,0.9333534,0.4281788,-3.558901,0.8207849,-0.11678511,0.10080289,0.03056109,2.171936
15:17:18.727;-0.11492168,-0.49799395,7.967903,-0.12376845,-0.0025972128,-0.31936073,9.752,-22.678,9.844,242.98416,1000,1000,1000,1000,0.0,0.0,0.0,0.0,1010.86,25.9,19.917461,41.400272,21.332886,0.41400272,-3.5375218,0.93113995,0.4429702,-3.5759635,0.8247152,-0.11876541,0.10076134,0.032287255,2.171936
15:17:18.746;-0.11492168,-0.49799395,7.967903,-0.12376845,-0.0025972128,-0.31936073,9.752,-22.678,9.844,242.98416,1000,1000,1000,1000,0.0,0.0,0.0,0.0,1010.8,25.9,20.416851,41.400272,21.332886,0.41400272,-3.540595,0.92896307,0.44991508,-3.5759635,0.8247152,-0.121117,0.100711994,0.026219402,2.171936
15:17:18.760;-0.15322891,-0.49799395,8.00621,-0.0016981363,-0.124667525,0.107885376,9.752,-22.678,9.844,242.98416,1000,1000,1000,1000,0.0,0.0,0.0,0.0,1010.8,25.9,20.416851,41.400272,21.332886,0.41400272,-3.540979,0.9305598,0.45839268,-3.5586169,1.0943217,-0.12114078,0.09896665,0.021748351,2.171936
15:17:18.776;-0.15322891,-0.49799395,8.00621,-0.0016981363,-0.124667525,0.107885376,9.752,-22.678,9.844,242.98416,1000,1000,1000,1000,0.0,0.0,0.0,0.0,1010.8,25.9,20.416851,38.91211,21.308004,0.3891211,-3.5413582,0.9318803,0.47295746,-3.5586169,1.0943217,-0.12116795,0.096971974,0.023474516,2.171936
15:17:18.789;-0.11492168,-0.49799395,8.0445175,-0.12376845,-0.0025972128,0.29099083,9.752,-22.678,9.844,242.98416,1000,1000,1000,1000,0.0,0.0,0.0,0.0,1010.72,25.9,21.085346,38.91211,21.308004,0.3891211,-3.542948,0.9295474,0.48709178,-3.5420008,0.81689197,-0.12277694,0.09693821,0.024877027,2.171936
15:17:18.805;-0.11492168,-0.49799395,8.0445175,-0.12376845,-0.0025972128,0.29099083,9.752,-22.678,9.844,242.98416,1000,1000,1000,1000,0.0,0.0,0.0,0.0,1010.72,25.9,21.085346,38.91211,21.308004,0.3891211,-3.5447485,0.9272561,0.5040602,-3.5420008,0.81689197,-0.12463347,0.09689925,0.02924189,2.171936
15:17:18.817;-0.11492168,-0.49799395,8.0445175,-0.12376845,-0.0025972128,0.29099083,9.752,-22.678,9.844,242.98416,1000,1000,1000,1000,0.0,0.0,0.0,0.0,1010.72,25.9,21.085346,38.91211,21.308004,0.3891211,-3.5462704,0.92501575,0.5203238,-3.5420008,0.81689197,-0.12624246,0.09686548,0.03302477,2.171936
15:17:18.831;-0.11492168,-0.5363012,8.00621,0.05933702,0.18050826,-0.1972904,9.66,-22.769999,9.844,242.8561,1000,1000,1000,1000,0.0,0.0,0.0,0.0,1010.77997,25.9,20.583313,41.331158,21.332193,0.41331157,-3.5511684,0.9254027,0.5377147,-3.8318763,0.82053244,-0.12541173,0.0993926,0.037098642,2.300003
15:17:18.846;-0.11492168,-0.5363012,8.00621,0.05933702,0.18050826,-0.1972904,9.66,-22.769999,9.844,242.8561,1000,1000,1000,1000,0.0,0.0,0.0,0.0,1010.77997,25.9,20.583313,41.331158,21.332193,0.41331157,-3.5559103,0.92595875,0.5479947,-3.8318763,0.82053244,-0.12452168,0.10210022,0.034139287,2.300003
15:17:18.859;-0.11492168,-0.49799395,7.967903,-0.12376845,-0.18570268,-0.25832558,9.66,-22.769999,9.844,242.8561,1000,1000,1000,1000,0.0,0.0,0.0,0.0,1010.77997,25.9,20.583313,41.331158,21.332193,0.41331157,-3.5578883,0.92156804,0.55858916,-3.5759635,0.8247152,-0.12613067,0.099686086,0.03157451,2.300003
15:17:18.873;-0.11492168,-0.49799395,7.967903,-0.12376845,-0.18570268,-0.25832558,9.66,-22.769999,9.844,242.8561,1000,1000,1000,1000,0.0,0.0,0.0,0.0,1010.8,25.9,20.416851,38.84299,21.307312,0.3884299,-3.559948,0.91708314,0.5680603,-3.5759635,0.8247152,-0.12786342,0.09708625,0.027957952,2.300003
15:17:18.888;-0.15322891,-0.45968673,8.0445175,0.120372176,0.36361372,0.16892053,9.66,-22.769999,9.752,242.8561,1000,1000,1000,1000,0.0,0.0,0.0,0.0,1010.8,25.9,20.416851,38.84299,21.307312,0.3884299,-3.5523777,0.92587537,0.577204,-3.2698963,1.0894395,-0.12605783,0.102540456,0.024083069,2.300003
15:17:18.902;-0.15322891,-0.45968673,8.0445175,0.120372176,0.36361372,0.16892053,9.66,-22.769999,9.752,242.8561,1000,1000,1000,1000,0.0,0.0,0.0,0.0,1010.8,25.9,20.416851,38.84299,21.307312,0.3884299,-3.5451949,0.9337791,0.59230447,-3.2698963,1.0894395,-0.124492995,0.10726743,0.026279036,2.300003
15:17:18.916;-0.11492168,-0.49799395,8.00621,-0.0016981363,0.058437943,-0.13625525,9.66,-22.769999,9.752,242.8561,1000,1000,1000,1000,0.0,0.0,0.0,0.0,1010.8,25.9,20.416851,38.84299,21.307312,0.3884299,-3.545494,0.93237823,0.607627,-3.558901,0.8207849,-0.12451847,0.108144,0.028812844,2.300003
15:17:18.930;-0.11492168,-0.49799395,8.00621,-0.0016981363,0.058437943,-0.13625525,9.66,-22.769999,9.752,242.8561,1000,1000,1000,1000,0.0,0.0,0.0,0.0,1010.8,25.9,20.416851,38.84299,21.307312,0.3884299,-3.5457857,0.93094814,0.6184265,-3.558901,0.8207849,-0.124542244,0.10896213,0.02690527,2.300003
15:17:18.943;-0.30645782,-0.5746084,8.082825,-0.12376845,-0.24673784,-0.13625525,9.292,-23.046,9.660001,242.33742,1000,1000,1000,1000,0.0,0.0,0.0,0.0,1010.8,25.9,20.416851,38.84299,21.307312,0.3884299,-3.557715,0.9525027,0.63317037,-4.063409,2.165851,-0.12615123,0.10575454,0.025133952,2.8186798
15:17:18.958;-0.30645782,-0.5746084,8.082825,-0.12376845,-0.24673784,-0.13625525,9.292,-23.046,9.660001,242.33742,1000,1000,1000,1000,0.0,0.0,0.0,0.0,1010.83997,25.9,20.083923,38.84299,21.307312,0.3884299,-3.569527,0.97338444,0.6476684,-4.063409,2.165851,-0.12788399,0.10230021,0.023226378,2.8186798
15:17:18.972;-0.2681506,-0.45968673,8.0445175,0.24244249,-0.124667525,0.16892053,9.292,-23.046,9.660001,242.33742,1000,1000,1000,1000,0.0,0.0,0.0,0.0,1010.83997,25.9,20.083923,38.84299,21.307312,0.3884299,-3.5601835,0.9903272,0.66205776,-3.2686765,1.9060454,-0.12448979,0.10055487,0.021318804,2.8186798
15:17:18.986;-0.2681506,-0.45968673,8.0445175,0.24244249,-0.124667525,0.16892053,9.292,-23.046,9.660001,242.33742,1000,1000,1000,1000,0.0,0.0,0.0,0.0,1010.83997,25.9,20.083923,38.84299,21.307312,0.3884299,-3.5507896,1.0068089,0.6807472,-3.2686765,1.9060454,-0.120853156,0.098684855,0.023852613,2.8186798
15:17:19.001;0.076614454,-0.5363012,8.236053,-0.24583876,0.18050826,-0.1972904,9.292,-23.046,9.660001,242.33742,1000,1000,1000,1000,0.0,0.0,0.0,0.0,1010.74,25.9,20.918882,38.84299,21.307312,0.3884299,-3.557897,0.9786893,0.6992965,-3.7254677,-0.53184235,-0.12454074,0.10139248,0.026386421,2.8186798
15:17:19.015;0.076614454,-0.5363012,8.236053,-0.24583876,0.18050826,-0.1972904,9.292,-23.046,9.660001,242.33742,1000,1000,1000,1000,0.0,0.0,0.0,0.0,1010.74,25.9,20.918882,38.84299,21.307312,0.3884299,-3.5646217,0.9509553,0.7124505,-3.7254677,-0.53184235,-0.12798248,0.103919595,0.023624355,2.8186798
15:17:19.029;-0.38307226,-0.4213795,7.929596,0.05933702,0.1194731,-0.13625525,9.476,-23.321997,9.844,242.6518,1000,1000,1000,1000,0.0,0.0,0.0,0.0,1010.74,25.9,20.918882,38.84299,21.307312,0.3884299,-3.5532813,0.9888127,0.72314805,-3.0383055,2.7618709,-0.12715176,0.10559222,0.020862289,2.504303
15:17:19.043;-0.38307226,-0.4213795,7.929596,0.05933702,0.1194731,-0.13625525,9.476,-23.321997,9.844,242.6518,1000,1000,1000,1000,0.0,0.0,0.0,0.0,1010.83997,25.9,20.083923,38.84299,21.307312,0.3884299,-3.5421677,1.025913,0.7346134,-3.0383055,2.7618709,-0.12632103,0.10726485,0.018954715,2.504303
15:17:19.057;-0.038307227,-0.61291564,8.121132,0.05933702,-0.124667525,0.29099083,9.476,-23.321997,9.844,242.6518,1000,1000,1000,1000,0.0,0.0,0.0,0.0,1010.83997,25.9,20.083923,38.84299,21.307312,0.3884299,-3.5568297,1.0090742,0.7459928,-4.31598,0.2694947,-0.12549031,0.1055195,0.01704714,2.504303
15:17:19.071;-0.038307227,-0.61291564,8.121132,0.05933702,-0.124667525,0.29099083,9.476,-23.321997,9.844,242.6518,1000,1000,1000,1000,0.0,0.0,0.0,0.0,1010.83997,25.9,20.083923,38.91211,21.308004,0.3891211,-3.5711985,0.9925722,0.7632234,-4.31598,0.2694947,-0.12465959,0.10377416,0.021121012,2.504303
15:17:19.086;0.0,-0.61291564,8.082825,0.05933702,0.18050826,-0.31936073,9.292,-23.414,9.936001,242.38962,1000,1000,1000,1000,0.0,0.0,0.0,0.0,1010.8,25.9,20.416851,38.91211,21.308004,0.3891211,-3.5856304,0.9753742,0.7825799,-4.336405,-0.0,-0.12376954,0.10648178,0.025485875,2.7664795
15:17:19.104;0.0,-0.61291564,8.082825,0.05933702,0.18050826,-0.31936073,9.292,-23.414,9.936001,242.38962,1000,1000,1000,1000,0.0,0.0,0.0,0.0,1010.8,25.9,20.416851,38.91211,21.308004,0.3891211,-3.5995991,0.95905095,0.7917537,-4.336405,-0.0,-0.12270147,0.10973093,0.019737381,2.7664795
15:17:19.115;-0.38307226,-0.5363012,7.967903,0.120372176,0.24154341,-0.07522009,9.292,-23.414,9.936001,242.38962,1000,1000,1000,1000,0.0,0.0,0.0,0.0,1010.8,25.9,20.416851,38.91211,21.308004,0.3891211,-3.6032336,0.9973994,0.80307746,-3.8462098,2.7462811,-0.12137738,0.11238791,0.016224414,2.7664795
15:17:19.130;-0.38307226,-0.5363012,7.967903,0.120372176,0.24154341,-0.07522009,9.292,-23.414,9.936001,242.38962,1000,1000,1000,1000,0.0,0.0,0.0,0.0,1010.86,25.9,19.917461,38.91211,21.308004,0.3891211,-3.6063237,1.0359278,0.8166831,-3.8462098,2.7462811,-0.1195718,0.11601106,0.015096113,2.7664795
15:17:19.148;0.076614454,-0.61291564,8.197746,-0.0016981363,-0.06363237,-0.014184937,9.568001,-23.505999,9.844,242.81332,1000,1000,1000,1000,0.0,0.0,0.0,0.0,1010.86,25.9,19.917461,38.91211,21.308004,0.3891211,-3.6197402,1.0034074,0.82678497,-4.2756553,-0.53396875,-0.11960237,0.114865676,0.013742152,2.3427734
15:17:19.158;0.076614454,-0.61291564,8.197746,-0.0016981363,-0.06363237,-0.014184937,9.568001,-23.505999,9.844,242.81332,1000,1000,1000,1000,0.0,0.0,0.0,0.0,1010.86,25.9,19.917461,38.91211,21.308004,0.3891211,-3.6328752,0.97203624,0.83801407,-4.2756553,-0.53396875,-0.11961935,0.11422935,0.013600302,2.3427734
15:17:19.173;-0.2681506,-0.38307226,7.967903,-0.12376845,-0.18570268,-0.1972904,9.568001,-23.505999,9.844,242.81332,1000,1000,1000,1000,0.0,0.0,0.0,0.0,1010.83997,25.9,20.083923,38.84299,21.307312,0.3884299,-3.617056,0.98837113,0.84908855,-2.7509303,1.9252739,-0.121475875,0.11144381,0.013387528,2.3427734
15:17:19.187;-0.2681506,-0.38307226,7.967903,-0.12376845,-0.18570268,-0.1972904,9.568001,-23.505999,9.844,242.81332,1000,1000,1000,1000,0.0,0.0,0.0,0.0,1010.83997,25.9,20.083923,38.84299,21.307312,0.3884299,-3.6013105,1.0047433,0.85774565,-2.7509303,1.9252739,-0.123084866,0.10902967,0.0108227525,2.3427734
15:17:19.200;-0.038307227,-0.5746084,8.082825,-0.30687392,0.058437943,0.22995569,9.568001,-23.505999,9.844,242.81332,1000,1000,1000,1000,0.0,0.0,0.0,0.0,1010.83997,25.9,20.083923,38.84299,21.307312,0.3884299,-3.61482,0.99086744,0.866142,-4.066273,0.2708584,-0.1273811,0.10984781,0.008060686,2.3427734
15:17:19.218;-0.038307227,-0.5746084,8.082825,-0.30687392,0.058437943,0.22995569,9.568001,-23.505999,9.844,242.81332,1000,1000,1000,1000,0.0,0.0,0.0,0.0,1010.8,25.9,20.416851,36.423943,21.283121,0.36423942,-3.6292622,0.9774981,0.8813248,-4.066273,0.2708584,-0.13290483,0.11089969,0.012199888,2.3427734
15:17:19.228;-0.2681506,-0.5746084,8.00621,-0.06273329,-0.0025972128,0.04685022,9.568001,-23.414,10.028,242.80142,1000,1000,1000,1000,0.0,0.0,0.0,0.0,1010.8,25.9,20.416851,36.423943,21.283121,0.36423942,-3.6393478,0.9961899,0.8946572,-4.1028056,1.9133626,-0.13353217,0.110873714,0.0144994445,2.3546753
15:17:19.242;-0.2681506,-0.5746084,8.00621,-0.06273329,-0.0025972128,0.04685022,9.568001,-23.414,10.028,242.80142,1000,1000,1000,1000,0.0,0.0,0.0,0.0,1010.8,25.9,20.416851,36.423943,21.283121,0.36423942,-3.6494777,1.0144978,0.9062583,-4.1028056,1.9133626,-0.13441043,0.110837355,0.015155348,2.3546753
15:17:19.257;-0.19153613,-0.49799395,7.967903,-0.06273329,-0.307773,-0.014184937,9.568001,-23.414,10.028,242.80142,1000,1000,1000,1000,0.0,0.0,0.0,0.0,1010.83997,25.9,20.083923,36.354828,21.28243,0.36354828,-3.648855,1.0174723,0.91777235,-3.5753043,1.3743565,-0.13528869,0.106528535,0.015811251,2.3546753
15:17:19.270;-0.19153613,-0.49799395,7.967903,-0.06273329,-0.307773,-0.014184937,9.568001,-23.414,10.028,242.80142,1000,1000,1000,1000,0.0,0.0,0.0,0.0,1010.83997,25.9,20.083923,36.354828,21.28243,0.36354828,-3.6482446,1.0203873,0.928352,-3.5753043,1.3743565,-0.13616695,0.102219716,0.015612663,2.3546753
15:17:19.284;-0.19153613,-0.61291564,8.00621,0.05933702,0.1194731,0.107885376,9.752,-23.046,9.752,243.03064,1000,1000,1000,1000,0.0,0.0,0.0,0.0,1010.83997,25.9,20.083923,36.354828,21.28243,0.36354828,-3.6619956,1.0289478,0.93713313,-4.3764935,1.3664542,-0.13533622,0.10389234,0.015414074,2.1254578
15:17:19.298;-0.19153613,-0.61291564,8.00621,0.05933702,0.1194731,0.107885376,9.752,-23.046,9.752,243.03064,1000,1000,1000,1000,0.0,0.0,0.0,0.0,1010.8,25.9,20.416851,36.354828,21.28243,0.36354828,-3.6754718,1.0373372,0.9475446,-4.3764935,1.3664542,-0.1345055,0.10556497,0.016924469,2.1254578
15:17:19.313;-0.22984336,-0.5363012,7.967903,-0.24583876,-0.06363237,-0.07522009,9.752,-23.046,9.752,243.03064,1000,1000,1000,1000,0.0,0.0,0.0,0.0,1010.8,25.9,20.416851,36.423943,21.283121,0.36423942,-3.6823163,1.0486889,0.95787793,-3.8490427,1.6485767,-0.13794723,0.104674116,0.018434864,2.1254578
15:17:19.327;-0.22984336,-0.5363012,7.967903,-0.24583876,-0.06363237,-0.07522009,9.752,-23.046,9.752,243.03064,1000,1000,1000,1000,0.0,0.0,0.0,0.0,1010.8,25.9,20.416851,36.423943,21.283121,0.36423942,-3.6890237,1.0598136,0.9655896,-3.8490427,1.6485767,-0.14138897,0.103783265,0.017381782,2.1254578
15:17:19.341;-0.15322891,-0.45968673,8.00621,-0.24583876,-0.0025972128,0.04685022,9.752,-22.862001,9.844,243.0075,1000,1000,1000,1000,0.0,0.0,0.0,0.0,1010.77997,25.9,20.583313,36.423943,21.283121,0.36423942,-3.6843264,1.0604744,0.97341686,-3.2855017,1.0946337,-0.1448307,0.103746906,0.0163287,2.14859
15:17:19.356;-0.15322891,-0.45968673,8.00621,-0.24583876,-0.0025972128,0.04685022,9.752,-22.862001,9.844,243.0075,1000,1000,1000,1000,0.0,0.0,0.0,0.0,1010.77997,25.9,20.583313,36.423943,21.283121,0.36423942,-3.6802049,1.0611168,0.98297465,-3.2855017,1.0946337,-0.14876412,0.103705354,0.017078303,2.14859
15:17:19.369;-0.11492168,-0.49799395,8.082825,-0.06273329,-0.0025972128,-0.07522009,9.752,-22.862001,9.844,243.0075,1000,1000,1000,1000,0.0,0.0,0.0,0.0,1010.77997,25.9,20.583313,36.423943,21.283121,0.36423942,-3.6778436,1.0561248,0.99227476,-3.5252597,0.8130356,-0.14951693,0.10367419,0.017640505,2.14859
15:17:19.383;-0.11492168,-0.49799395,8.082825,-0.06273329,-0.0025972128,-0.07522009,9.752,-22.862001,9.844,243.0075,1000,1000,1000,1000,0.0,0.0,0.0,0.0,1010.83997,25.9,20.083923,36.423943,21.283121,0.36423942,-3.6756527,1.0512275,0.99990195,-3.5252597,0.8130356,-0.15039518,0.10363783,0.016587423,2.14859
15:17:19.397;-0.11492168,-0.45968673,8.00621,-0.12376845,0.1194731,-0.13625525,9.752,-22.862001,9.844,243.0075,1000,1000,1000,1000,0.0,0.0,0.0,0.0,1010.83997,25.9,20.083923,36.423943,21.283121,0.36423942,-3.6696744,1.0483795,1.0073972,-3.2857642,0.821019,-0.1522517,0.105429925,0.015459122,2.14859
15:17:19.411;-0.11492168,-0.45968673,8.00621,-0.12376845,0.1194731,-0.13625525,9.752,-22.862001,9.844,243.0075,1000,1000,1000,1000,0.0,0.0,0.0,0.0,1010.83997,25.9,20.083923,36.423943,21.283121,0.36423942,-3.6636944,1.0454715,1.0140628,-3.2857642,0.821019,-0.15398446,0.10710255,0.013551548,2.14859
15:17:19.426;-0.076614454,-0.5746084,8.00621,0.18140733,0.058437943,0.4740963,9.844,-22.769999,9.844,243.1357,1000,1000,1000,1000,0.0,0.0,0.0,0.0,1010.8,25.9,20.416851,38.84299,21.307312,0.3884299,-3.6698523,1.0363584,1.0195818,-4.1049113,0.5468617,-0.15126334,0.10797912,0.01150772,2.020401
15:17:19.440;-0.076614454,-0.5746084,8.00621,0.18140733,0.058437943,0.4740963,9.844,-22.769999,9.844,243.1357,1000,1000,1000,1000,0.0,0.0,0.0,0.0,1010.8,25.9,20.416851,38.84299,21.307312,0.3884299,-3.6760647,1.0273702,1.0336756,-4.1049113,0.5468617,-0.14872363,0.10879725,0.018145068,2.020401
15:17:19.454;-0.19153613,-0.49799395,7.967903,-0.1848036,0.058437943,-0.1972904,9.844,-22.769999,9.844,243.1357,1000,1000,1000,1000,0.0,0.0,0.0,0.0,1010.8,25.9,20.416851,38.91211,21.308004,0.3891211,-3.6765852,1.0351118,1.0476636,-3.5753043,1.3743565,-0.15131088,0.109615386,0.024782415,2.020401
15:17:19.469;-0.19153613,-0.49799395,7.967903,-0.1848036,0.058437943,-0.1972904,9.844,-22.769999,9.844,243.1357,1000,1000,1000,1000,0.0,0.0,0.0,0.0,1010.83997,25.9,20.083923,38.91211,21.308004,0.3891211,-3.6772761,1.0427557,1.052022,-3.5753043,1.3743565,-0.15408292,0.110491954,0.02182306,2.020401
15:17:19.484;-0.11492168,-0.5363012,8.00621,-0.12376845,-0.124667525,0.04685022,9.844,-22.862001,9.936001,243.147,1000,1000,1000,1000,0.0,0.0,0.0,0.0,1010.83997,25.9,20.083923,38.91211,21.308004,0.3891211,-3.6821876,1.0364786,1.0562629,-3.8318763,0.82053244,-0.15593944,0.10862194,0.018863704,2.0090942
15:17:19.499;-0.11492168,-0.5363012,8.00621,-0.12376845,-0.124667525,0.04685022,9.844,-22.862001,9.936001,243.147,1000,1000,1000,1000,0.0,0.0,0.0,0.0,1010.83997,25.9,20.083923,38.91211,21.308004,0.3891211,-3.6870008,1.0303271,1.0641066,-3.8318763,0.82053244,-0.15779597,0.106751926,0.019566458,2.0090942
15:17:19.513;-0.11492168,-0.5746084,8.00621,-0.0016981363,0.30257857,0.29099083,9.844,-22.862001,9.936001,243.147,1000,1000,1000,1000,0.0,0.0,0.0,0.0,1010.8,25.9,20.416851,38.91211,21.308004,0.3891211,-3.6953776,1.0302771,1.0718449,-4.104677,0.8202614,-0.15781973,0.11098803,0.02022236,2.0090942
15:17:19.531;-0.11492168,-0.5746084,8.00621,-0.0016981363,0.30257857,0.29099083,9.844,-22.862001,9.936001,243.147,1000,1000,1000,1000,0.0,0.0,0.0,0.0,1010.8,25.9,20.416851,38.91211,21.308004,0.3891211,-3.7035918,1.0311178,1.083784,-4.104677,0.8202614,-0.1578486,0.116131864,0.025169205,2.0090942
15:17:19.554;-0.22984336,-0.45968673,7.967903,-0.12376845,-0.06363237,-0.13625525,9.844,-22.862001,9.936001,243.147,1000,1000,1000,1000,0.0,0.0,0.0,0.0,1010.8,25.9,20.416851,38.91211,21.308004,0.3891211,-3.6984408,1.0419902,1.0976552,-3.3004959,1.6495633,-0.16081904,0.11460469,0.032152984,2.0090942
15:17:19.574;-0.22984336,-0.45968673,7.967903,-0.12376845,-0.06363237,-0.13625525,9.844,-22.862001,9.936001,243.147,1000,1000,1000,1000,0.0,0.0,0.0,0.0,1010.74,25.9,20.918882,66.074554,21.579628,0.66074556,-3.6929076,1.0528945,1.1017863,-3.3004959,1.6495633,-0.1632944,0.11333204,0.029427879,2.0090942
15:17:19.615;-0.15322891,-0.45968673,8.082825,0.05933702,-0.124667525,0.107885376,9.844,-22.862001,9.936001,243.15826,1000,1000,1000,1000,0.0,0.0,0.0,0.0,1010.74,25.9,20.918882,66.074554,21.579628,0.66074556,-3.681754,1.0485133,1.102962,-3.254438,1.0842942,-0.16086158,0.108220674,0.023841413,1.9978333
15:17:19.621;-0.076614454,-0.5363012,8.0445175,-0.24583876,0.058437943,0.29099083,9.844,-22.954,9.936001,243.15826,1000,1000,1000,1000,0.0,0.0,0.0,0.0,1010.74,25.9,20.918882,63.655506,21.555437,0.6365551,-3.6856017,1.0387183,1.110209,-3.8139026,0.54444915,-0.16209078,0.10851286,0.02438084,1.9978333
15:17:19.636;-0.076614454,-0.5363012,8.0445175,-0.24583876,0.058437943,0.29099083,9.844,-22.954,9.936001,243.15826,1000,1000,1000,1000,0.0,0.0,0.0,0.0,1010.74,25.9,20.918882,63.655506,21.555437,0.6365551,-3.6920226,1.0297492,1.1214871,-3.8139026,0.54444915,-0.1660242,0.109447874,0.029036693,1.9978333
15:17:19.649;-0.11492168,-0.49799395,7.929596,-0.0016981363,-0.06363237,-0.25832558,9.844,-22.954,9.936001,243.15826,1000,1000,1000,1000,0.0,0.0,0.0,0.0,1010.92,25.9,19.415428,63.655506,21.555437,0.6365551,-3.6900675,1.0249172,1.1318142,-3.5931897,0.82868314,-0.16604626,0.10862065,0.032819573,1.9978333
15:17:19.664;-0.11492168,-0.49799395,7.929596,-0.0016981363,-0.06363237,-0.25832558,9.844,-22.954,9.936001,243.15826,1000,1000,1000,1000,0.0,0.0,0.0,0.0,1010.92,25.9,19.415428,63.655506,21.555437,0.6365551,-3.688155,1.0200572,1.1344635,-3.5931897,0.82868314,-0.16607173,0.107666165,0.02894469,1.9978333
15:17:19.673;-0.11492168,-0.5363012,8.00621,-0.0016981363,-0.06363237,-0.07522009,9.844,-22.954,9.936001,243.15826,1000,1000,1000,1000,0.0,0.0,0.0,0.0,1010.92,25.9,19.415428,63.655506,21.555437,0.6365551,-3.6910443,1.0155054,1.1386313,-3.8318763,0.82053244,-0.16608702,0.107093476,0.02661976,1.9978333
15:17:19.688;-0.11492168,-0.5363012,8.0445175,-0.0016981363,0.058437943,0.107885376,9.844,-22.954,9.936001,243.15826,1000,1000,1000,1000,0.0,0.0,0.0,0.0,1010.89996,26.0,19.584534,63.655506,21.555437,0.6365551,-3.6935222,1.0123872,1.1439556,-3.813687,0.816643,-0.16611248,0.107970044,0.02549146,1.9978333
15:17:19.702;-0.11492168,-0.5363012,8.0445175,-0.0016981363,0.058437943,0.107885376,9.844,-22.954,9.936001,243.15826,1000,1000,1000,1000,0.0,0.0,0.0,0.0,1010.89996,26.0,19.584534,63.655506,21.555437,0.6365551,-3.6959488,1.009274,1.1518588,-3.813687,0.816643,-0.16613625,0.10878818,0.027001854,1.9978333
15:17:19.718;-0.11492168,-0.49799395,7.967903,-0.06273329,-0.06363237,-0.3803959,9.844,-22.954,9.936001,243.15826,1000,1000,1000,1000,0.0,0.0,0.0,0.0,1010.89996,26.0,19.584534,63.655506,21.555437,0.6365551,-3.6945326,1.004585,1.1599169,-3.5759635,0.8247152,-0.16713998,0.10777006,0.02872802,1.9978333
15:17:19.731;-0.11492168,-0.49799395,7.967903,-0.06273329,-0.06363237,-0.3803959,9.844,-22.954,9.936001,243.15826,1000,1000,1000,1000,0.0,0.0,0.0,0.0,1010.89996,26.0,19.584534,63.655506,21.555437,0.6365551,-3.6928988,1.0002394,1.1616708,-3.5759635,0.8247152,-0.16789278,0.107006475,0.024163269,1.9978333
15:17:19.745;-0.15322891,-0.5363012,8.00621,-0.06273329,-0.124667525,0.22995569,9.752,-22.769999,9.844,242.99586,1000,1000,1000,1000,0.0,0.0,0.0,0.0,1010.8,25.9,20.416851,61.167347,21.530556,0.6116735,-3.6965945,1.0002817,1.1634969,-3.8315704,1.0939851,-0.16883378,0.10513646,0.01845733,2.1602325
15:17:19.760;-0.15322891,-0.5363012,8.00621,-0.06273329,-0.124667525,0.22995569,9.752,-22.769999,9.844,242.99586,1000,1000,1000,1000,0.0,0.0,0.0,0.0,1010.8,25.9,20.416851,61.167347,21.530556,0.6116735,-3.7002163,1.0003232,1.1743958,-3.8315704,1.0939851,-0.16977477,0.10326645,0.021906666,2.1602325
15:17:19.780;-0.076614454,-0.5363012,8.00621,-0.0016981363,0.1194731,-0.07522009,9.752,-22.769999,9.844,242.99586,1000,1000,1000,1000,0.0,0.0,0.0,0.0,1010.83997,25.9,20.083923,61.167347,21.530556,0.6116735,-3.7028854,0.9934822,1.186126,-3.832095,0.54704237,-0.16980703,0.10553644,0.026275825,2.1602325
15:17:19.789;-0.076614454,-0.5363012,8.00621,-0.0016981363,0.1194731,-0.07522009,9.752,-22.769999,9.844,242.99586,1000,1000,1000,1000,0.0,0.0,0.0,0.0,1010.83997,25.9,20.083923,61.167347,21.530556,0.6116735,-3.705486,0.9857242,1.1926852,-3.832095,0.54704237,-0.16982402,0.10673117,0.025523623,2.1602325
15:17:19.801;-0.11492168,-0.49799395,7.967903,-0.12376845,-0.06363237,-0.25832558,9.936,-22.862001,9.936001,243.28656,1000,1000,1000,1000,0.0,0.0,0.0,0.0,1010.83997,25.9,20.083923,61.167347,21.530556,0.6116735,-3.704351,0.9817557,1.1968658,-3.5759635,0.8247152,-0.17130925,0.10596758,0.024620982,1.8695374
15:17:19.816;-0.11492168,-0.49799395,7.967903,-0.12376845,-0.06363237,-0.25832558,9.936,-22.862001,9.936001,243.28656,1000,1000,1000,1000,0.0,0.0,0.0,0.0,1010.83997,25.9,20.083923,61.167347,21.530556,0.6116735,-3.7036026,0.97767943,1.198065,-3.5759635,0.8247152,-0.17316577,0.105013095,0.020746099,1.8695374
15:17:19.831;-0.076614454,-0.49799395,8.082825,-0.0016981363,0.18050826,0.29099083,9.936,-22.862001,9.936001,243.28656,1000,1000,1000,1000,0.0,0.0,0.0,0.0,1010.86,25.9,19.917461,61.167347,21.530556,0.6116735,-3.7000632,0.97144336,1.1995116,-3.5254574,0.542044,-0.17318954,0.10754021,0.01712954,1.8695374
15:17:19.846;-0.076614454,-0.49799395,8.082825,-0.0016981363,0.18050826,0.29099083,9.936,-22.862001,9.936001,243.28656,1000,1000,1000,1000,0.0,0.0,0.0,0.0,1010.86,25.9,19.917461,61.167347,21.530556,0.6116735,-3.6965978,0.9656858,1.2091577,-3.5254574,0.542044,-0.1732167,0.11042835,0.021785393,1.8695374
15:17:19.859;-0.15322891,-0.5363012,8.0445175,0.05933702,-0.06363237,-0.25832558,9.936,-22.862001,9.936001,243.28656,1000,1000,1000,1000,0.0,0.0,0.0,0.0,1010.86,25.9,19.917461,61.167347,21.530556,0.6116735,-3.6981778,0.96733737,1.217865,-3.8133852,1.0888,-0.17244531,0.109601125,0.025568275,1.8695374
15:17:19.873;-0.15322891,-0.5363012,8.0445175,0.05933702,-0.06363237,-0.25832558,9.936,-22.862001,9.936001,243.28656,1000,1000,1000,1000,0.0,0.0,0.0,0.0,1010.83997,25.9,20.083923,61.167347,21.530556,0.6116735,-3.699668,0.9688936,1.2191631,-3.8133852,1.0888,-0.17161459,0.108710274,0.021951716,1.8695374
15:17:19.886;-0.11492168,-0.49799395,7.967903,-0.0016981363,-0.0025972128,-0.014184937,9.752,-22.862001,9.844,243.0075,1000,1000,1000,1000,0.0,0.0,0.0,0.0,1010.83997,25.9,20.083923,61.167347,21.530556,0.6116735,-3.6972156,0.96597695,1.2228006,-3.5759635,0.8247152,-0.17163666,0.10867651,0.018593485,2.14859
15:17:19.901;-0.11492168,-0.49799395,7.967903,-0.0016981363,-0.0025972128,-0.014184937,9.752,-22.862001,9.844,243.0075,1000,1000,1000,1000,0.0,0.0,0.0,0.0,1010.83997,25.9,20.083923,61.167347,21.530556,0.6116735,-3.6948154,0.9631135,1.2295327,-3.5759635,0.8247152,-0.17166212,0.10863755,0.01838071,2.14859
15:17:19.916;-0.076614454,-0.5363012,8.0445175,-0.06273329,0.058437943,0.352026,9.752,-22.862001,9.844,243.0075,1000,1000,1000,1000,0.0,0.0,0.0,0.0,1010.83997,25.9,20.083923,71.05089,21.62939,0.7105089,-3.698058,0.955542,1.2362285,-3.8139026,0.54444915,-0.17254038,0.10945568,0.018182121,2.14859
15:17:19.930;-0.076614454,-0.5363012,8.0445175,-0.06273329,0.058437943,0.352026,9.752,-22.862001,9.844,243.0075,1000,1000,1000,1000,0.0,0.0,0.0,0.0,1010.83997,25.9,20.083923,71.05089,21.62939,0.7105089,-3.701297,0.9481792,1.2483119,-3.8139026,0.54444915,-0.17348137,0.11033225,0.023462512,2.14859
15:17:19.945;-0.076614454,-0.5363012,8.0445175,-0.06273329,0.058437943,0.352026,9.752,-22.862001,9.844,243.0075,1000,1000,1000,1000,0.0,0.0,0.0,0.0,1010.83997,25.9,20.083923,71.05089,21.62939,0.7105089,-3.7044713,0.9409636,1.2603047,-3.8139026,0.54444915,-0.17442237,0.11120882,0.028742902,2.14859
15:17:19.964;-0.15322891,-0.5363012,7.967903,0.05933702,-0.06363237,-0.014184937,9.844,-22.769999,9.936001,243.1357,1000,1000,1000,1000,0.0,0.0,0.0,0.0,1010.74,25.9,20.918882,269.3437,23.61232,2.6934369,-3.7062755,0.94294393,1.2726438,-3.8499293,1.0992197,-0.17329496,0.109999806,0.035431396,2.020401
15:17:19.975;-0.15322891,-0.5363012,7.967903,0.05933702,-0.06363237,-0.014184937,9.844,-22.769999,9.936001,243.1357,1000,1000,1000,1000,0.0,0.0,0.0,0.0,1010.74,25.9,20.918882,269.3437,23.61232,2.6934369,-3.7085087,0.94538355,1.2780972,-3.8499293,1.0992197,-0.17264226,0.109299846,0.035275362,2.020401
15:17:19.986;-0.11492168,-0.49799395,8.0445175,-0.12376845,0.058437943,-0.25832558,9.844,-22.769999,9.936001,243.1357,1000,1000,1000,1000,0.0,0.0,0.0,0.0,1010.74,25.9,20.918882,269.3437,23.61232,2.6934369,-3.7065127,0.9434437,1.2835096,-3.5420008,0.81689197,-0.17400372,0.10994266,0.03511933,2.020401
15:17:20.001;-0.11492168,-0.49799395,8.0445175,-0.12376845,0.058437943,-0.25832558,9.844,-22.769999,9.936001,243.1357,1000,1000,1000,1000,0.0,0.0,0.0,0.0,1010.74,25.9,20.918882,66.14368,21.580318,0.6614368,-3.705042,0.9417717,1.2851905,-3.5420008,0.81689197,-0.17586024,0.11081923,0.031244446,2.020401
15:17:20.016;-0.11492168,-0.5363012,8.082825,0.120372176,0.058437943,0.04685022,9.752,-22.862001,9.844,243.0075,1000,1000,1000,1000,0.0,0.0,0.0,0.0,1010.86,25.9,19.917461,66.14368,21.580318,0.6614368,-3.705203,0.93999386,1.2880764,-3.7956693,0.81279016,-0.17417502,0.11163736,0.027627887,2.14859
15:17:20.051;-0.11492168,-0.5363012,8.082825,0.120372176,0.058437943,0.04685022,9.752,-22.862001,9.844,243.0075,1000,1000,1000,1000,0.0,0.0,0.0,0.0,1010.86,25.9,19.917461,41.331158,21.332193,0.41331157,-3.7030017,0.9393969,1.2961111,-3.7956693,0.81279016,-0.17008238,0.11362425,0.029220795,2.14859
15:17:20.060;-0.15322891,-0.45968673,8.00621,-0.0016981363,0.1194731,0.107885376,9.752,-22.862001,9.844,243.0075,1000,1000,1000,1000,0.0,0.0,0.0,0.0,1010.77997,25.9,20.583313,41.331158,21.332193,0.41331157,-3.6946685,0.9436725,1.3029696,-3.2855017,1.0946337,-0.17009936,0.11481898,0.029689297,2.14859
15:17:20.075;-0.15322891,-0.45968673,8.00621,-0.0016981363,0.1194731,0.107885376,9.752,-22.862001,9.844,243.0075,1000,1000,1000,1000,0.0,0.0,0.0,0.0,1010.77997,25.9,20.583313,41.331158,21.332193,0.41331157,-3.686512,0.94856507,1.3110249,-3.2855017,1.0946337,-0.17012653,0.116730556,0.031415462,2.14859
15:17:20.088;-0.15322891,-0.49799395,8.00621,-0.12376845,0.24154341,0.04685022,9.844,-22.862001,9.844,243.147,1000,1000,1000,1000,0.0,0.0,0.0,0.0,1010.77997,25.9,20.583313,41.331158,21.332193,0.41331157,-3.685531,0.9545575,1.3176523,-3.5586169,1.0943217,-0.17173551,0.11987062,0.03281797,2.0090942
15:17:20.103;-0.11492168,-0.49799395,8.0445175,-0.06273329,-0.06363237,0.107885376,9.844,-22.862001,9.844,243.147,1000,1000,1000,1000,0.0,0.0,0.0,0.0,1010.83997,25.9,20.083923,73.53904,21.654272,0.7353904,-3.6835825,0.9508687,1.3235356,-3.5420008,0.81689197,-0.1726765,0.11891613,0.033520725,2.0090942
15:17:20.115;-0.11492168,-0.49799395,8.0445175,-0.06273329,-0.06363237,0.107885376,9.844,-22.862001,9.844,243.147,1000,1000,1000,1000,0.0,0.0,0.0,0.0,1010.83997,25.9,20.083923,73.53904,21.654272,0.7353904,-3.6814885,0.94744086,1.3299621,-3.5420008,0.81689197,-0.17342931,0.118152544,0.03481535,2.0090942
15:17:20.132;-0.11492168,-0.5363012,8.00621,-0.12376845,-0.06363237,0.22995569,9.844,-22.678,9.844,243.12433,1000,1000,1000,1000,0.0,0.0,0.0,0.0,1010.83997,25.9,20.083923,66.14368,21.580318,0.6614368,-3.6865582,0.9438426,1.337046,-3.8318763,0.82053244,-0.17553337,0.117070794,0.0366494,2.0317688
15:17:20.146;-0.11492168,-0.5363012,8.00621,-0.12376845,-0.06363237,0.22995569,9.844,-22.678,9.844,243.12433,1000,1000,1000,1000,0.0,0.0,0.0,0.0,1010.8,25.9,20.416851,66.14368,21.580318,0.6614368,-3.6911628,0.94050336,1.3454517,-3.8318763,0.82053244,-0.17726612,0.11617994,0.03986878,2.0317688
15:17:20.161;-0.15322891,-0.4213795,7.967903,-0.12376845,-0.06363237,-0.014184937,9.844,-22.678,9.844,243.12433,1000,1000,1000,1000,0.0,0.0,0.0,0.0,1010.8,25.9,20.416851,66.14368,21.580318,0.6614368,-3.6796927,0.94276124,1.3540226,-3.0266867,1.1001691,-0.17912264,0.11522546,0.043318115,2.0317688
15:17:20.176;-0.15322891,-0.4213795,7.967903,-0.12376845,-0.06363237,-0.014184937,9.844,-22.678,9.844,243.12433,1000,1000,1000,1000,0.0,0.0,0.0,0.0,1010.8,25.9,20.416851,66.14368,21.580318,0.6614368,-3.6684523,0.94497395,1.3588946,-3.0266867,1.1001691,-0.18097916,0.11427097,0.04310534,2.0317688
15:17:20.189;-0.15322891,-0.49799395,8.0445175,-0.06273329,-0.0025972128,0.107885376,9.844,-22.678,9.844,243.12433,1000,1000,1000,1000,0.0,0.0,0.0,0.0,1010.8,25.9,20.416851,66.14368,21.580318,0.6614368,-3.666717,0.94782406,1.3637581,-3.5417204,1.0891318,-0.18179469,0.114237204,0.042920936,2.0317688
15:17:20.204;-0.15322891,-0.49799395,8.0445175,-0.06273329,-0.0025972128,0.107885376,9.844,-22.678,9.844,243.12433,1000,1000,1000,1000,0.0,0.0,0.0,0.0,1010.8,25.9,20.416851,38.84299,21.307312,0.3884299,-3.6651394,0.950612,1.3703743,-3.5417204,1.0891318,-0.18273568,0.114198245,0.044539217,2.0317688
15:17:20.220;-0.15322891,-0.49799395,8.0445175,-0.06273329,-0.0025972128,0.107885376,9.844,-22.678,9.844,243.12433,1000,1000,1000,1000,0.0,0.0,0.0,0.0,1010.8,25.9,20.416851,38.84299,21.307312,0.3884299,-3.6635933,0.9533442,1.376941,-3.5417204,1.0891318,-0.18367667,0.114159286,0.046157498,2.0317688
15:17:20.230;-0.11492168,-0.49799395,8.00621,0.05933702,0.18050826,-0.07522009,9.752,-22.586,9.844,242.97238,1000,1000,1000,1000,0.0,0.0,0.0,0.0,1010.8,25.9,20.416851,41.331158,21.332193,0.41331157,-3.6608598,0.9526389,1.3841696,-3.558901,0.8207849,-0.18302397,0.11614488,0.047344238,2.1837158
15:17:20.246;-0.11492168,-0.49799395,8.00621,0.05933702,0.18050826,-0.07522009,9.752,-22.586,9.844,242.97238,1000,1000,1000,1000,0.0,0.0,0.0,0.0,1010.8,25.9,20.416851,41.331158,21.332193,0.41331157,-3.6578903,0.9528322,1.3889716,-3.558901,0.8207849,-0.18207458,0.119033016,0.046140715,2.1837158
15:17:20.258;-0.11492168,-0.49799395,8.0445175,0.18140733,-0.0025972128,-0.13625525,9.752,-22.586,9.844,242.97238,1000,1000,1000,1000,0.0,0.0,0.0,0.0,1010.8,25.9,20.416851,41.331158,21.332193,0.41331157,-3.653439,0.95008284,1.3940362,-3.5420008,0.81689197,-0.1798977,0.11900185,0.045238074,2.1837158
15:17:20.274;-0.11492168,-0.49799395,8.0445175,0.18140733,-0.0025972128,-0.13625525,9.752,-22.586,9.844,242.97238,1000,1000,1000,1000,0.0,0.0,0.0,0.0,1010.8,25.9,20.416851,66.14368,21.580318,0.6614368,-3.6485436,0.9473808,1.3979301,-3.5420008,0.81689197,-0.17717658,0.11896289,0.043194246,2.1837158
15:17:20.286;-0.11492168,-0.5363012,8.0445175,0.120372176,0.1194731,-0.014184937,9.844,-22.769999,9.844,243.1357,1000,1000,1000,1000,0.0,0.0,0.0,0.0,1010.77997,26.0,20.583313,66.14368,21.580318,0.6614368,-3.6503131,0.94628817,1.4008406,-3.813687,0.816643,-0.17561173,0.12051604,0.041422926,2.020401
15:17:20.301;-0.11492168,-0.5363012,8.0445175,0.120372176,0.1194731,-0.014184937,9.844,-22.769999,9.844,243.1357,1000,1000,1000,1000,0.0,0.0,0.0,0.0,1010.77997,26.0,20.583313,66.14368,21.580318,0.6614368,-3.6518111,0.9454515,1.4052762,-3.813687,0.816643,-0.17380615,0.122308135,0.041210152,2.020401
15:17:20.324;-0.076614454,-0.5363012,8.00621,0.120372176,0.1194731,0.107885376,9.844,-22.769999,9.844,243.1357,1000,1000,1000,1000,0.0,0.0,0.0,0.0,1010.77997,26.0,20.583313,66.14368,21.580318,0.6614368,-3.6527035,0.94017625,1.4095658,-3.832095,0.54704237,-0.17103758,0.12505601,0.0408839,2.020401
15:17:20.330;-0.076614454,-0.5363012,8.00621,0.120372176,0.1194731,0.107885376,9.844,-22.769999,9.844,243.1357,1000,1000,1000,1000,0.0,0.0,0.0,0.0,1010.8,25.9,20.416851,66.14368,21.580318,0.6614368,-3.6555836,0.9330161,1.4147896,-3.832095,0.54704237,-0.17031536,0.12577285,0.041531213,2.020401
15:17:20.345;-0.076614454,-0.5363012,8.00621,0.120372176,0.1194731,0.107885376,9.844,-22.769999,9.844,243.1357,1000,1000,1000,1000,0.0,0.0,0.0,0.0,1010.8,25.9,20.416851,34.143127,21.260313,0.34143126,-3.6573443,0.9270529,1.4209378,-3.832095,0.54704237,-0.16850977,0.12756495,0.043149494,2.020401
15:17:20.363;-0.15322891,-0.45968673,7.967903,-0.06273329,-0.24673784,-0.25832558,9.752,-22.769999,9.844,242.99586,1000,1000,1000,1000,0.0,0.0,0.0,0.0,1010.8,25.9,20.416851,34.143127,21.260313,0.34143126,-3.6512678,0.9263987,1.4283028,-3.3012567,1.0998777,-0.16957623,0.12337041,0.044983543,2.1602325
15:17:20.374;-0.076614454,-0.49799395,8.00621,-0.12376845,-0.124667525,0.29099083,9.752,-22.769999,9.844,242.99586,1000,1000,1000,1000,0.0,0.0,0.0,0.0,1010.8,25.9,20.416851,41.331158,21.332193,0.41331157,-3.6507587,0.91747105,1.430972,-3.5591042,0.54721075,-0.17093769,0.12199906,0.042141963,2.1602325
15:17:20.389;-0.076614454,-0.49799395,8.00621,-0.12376845,-0.124667525,0.29099083,9.752,-22.769999,9.844,242.99586,1000,1000,1000,1000,0.0,0.0,0.0,0.0,1010.8,25.9,20.416851,41.331158,21.332193,0.41331157,-3.6507452,0.9082332,1.4407736,-3.5591042,0.54721075,-0.17279421,0.12012905,0.046506826,2.1602325
15:17:20.403;-0.11492168,-0.45968673,8.0445175,-0.0016981363,0.058437943,0.107885376,9.752,-22.678,9.844,242.98416,1000,1000,1000,1000,0.0,0.0,0.0,0.0,1010.8,25.9,20.416851,41.331158,21.332193,0.41331157,-3.6431582,0.9072701,1.4505894,-3.270155,0.8171227,-0.17281967,0.12100562,0.05087169,2.171936
15:17:20.417;-0.11492168,-0.45968673,8.0445175,-0.0016981363,0.058437943,0.107885376,9.752,-22.678,9.844,242.98416,1000,1000,1000,1000,0.0,0.0,0.0,0.0,1010.83997,26.0,20.083923,41.331158,21.332193,0.41331157,-3.6357198,0.9062117,1.4573915,-3.270155,0.8171227,-0.17284174,0.12176531,0.052274197,2.171936
15:17:20.429;-0.076614454,-0.5363012,8.00621,-0.0016981363,0.058437943,-0.014184937,9.752,-22.678,9.844,242.98416,1000,1000,1000,1000,0.0,0.0,0.0,0.0,1010.83997,26.0,20.083923,41.331158,21.332193,0.41331157,-3.639669,0.8997728,1.4641426,-3.832095,0.54704237,-0.17286381,0.122525,0.053676706,2.171936
15:17:20.444;-0.076614454,-0.5363012,8.00621,-0.0016981363,0.058437943,-0.014184937,9.752,-22.678,9.844,242.98416,1000,1000,1000,1000,0.0,0.0,0.0,0.0,1010.83997,26.0,20.083923,38.84299,21.307312,0.3884299,-3.6435425,0.8935773,1.4692398,-3.832095,0.54704237,-0.17288928,0.12340157,0.053463932,2.171936
15:17:20.459;-0.11492168,-0.45968673,8.00621,-0.0016981363,0.1194731,-0.014184937,9.752,-22.678,9.844,242.98416,1000,1000,1000,1000,0.0,0.0,0.0,0.0,1010.77997,25.9,20.583313,38.84299,21.307312,0.3884299,-3.6364121,0.89388233,1.4742988,-3.2857642,0.821019,-0.17291474,0.12519367,0.05325116,2.171936
15:17:20.476;-0.11492168,-0.45968673,8.00621,-0.0016981363,0.1194731,-0.014184937,9.752,-22.678,9.844,242.98416,1000,1000,1000,1000,0.0,0.0,0.0,0.0,1010.77997,25.9,20.583313,66.14368,21.580318,0.6614368,-3.6294277,0.8944155,1.4792917,-3.2857642,0.821019,-0.1729436,0.12722471,0.053010013,2.171936
15:17:20.490;-0.076614454,-0.49799395,7.967903,-0.06273329,0.18050826,-0.07522009,9.844,-22.586,9.936001,243.1129,1000,1000,1000,1000,0.0,0.0,0.0,0.0,1010.77997,26.0,20.583313,66.14368,21.580318,0.6614368,-3.6292233,0.8900004,1.4833239,-3.5761695,0.5498312,-0.17382187,0.12975183,0.052811425,2.0431976
15:17:20.502;-0.076614454,-0.49799395,7.967903,-0.06273329,0.18050826,-0.07522009,9.844,-22.586,9.936001,243.1129,1000,1000,1000,1000,0.0,0.0,0.0,0.0,1010.77997,26.0,20.583313,66.14368,21.580318,0.6614368,-3.6289,0.8853198,1.4866271,-3.5761695,0.5498312,-0.17457467,0.13191792,0.051908784,2.0431976
15:17:20.521;-0.15322891,-0.45968673,8.00621,-0.12376845,-0.24673784,-0.1972904,9.844,-22.586,9.936001,243.1129,1000,1000,1000,1000,0.0,0.0,0.0,0.0,1010.77997,26.0,20.583313,48.726532,21.406147,0.48726532,-3.6243367,0.88491184,1.489383,-3.2855017,1.0946337,-0.17692627,0.1272299,0.050479602,2.0431976
15:17:20.533;-0.15322891,-0.45968673,8.00621,-0.12376845,-0.24673784,-0.1972904,9.844,-22.586,9.936001,243.1129,1000,1000,1000,1000,0.0,0.0,0.0,0.0,1010.8,26.0,20.416851,48.726532,21.406147,0.48726532,-3.6190155,0.88620466,1.4911869,-3.2855017,1.0946337,-0.1784115,0.124269046,0.048112117,2.0431976
15:17:20.550;-0.15322891,-0.49799395,7.967903,-0.06273329,-0.0025972128,0.04685022,9.752,-22.769999,9.752,242.99586,1000,1000,1000,1000,0.0,0.0,0.0,0.0,1010.8,26.0,20.416851,48.726532,21.406147,0.48726532,-3.6191938,0.8904285,1.4928759,-3.575675,1.0995612,-0.17947796,0.124224894,0.04475818,2.1602325
15:17:20.595;-0.15322891,-0.49799395,7.967903,-0.06273329,-0.0025972128,0.04685022,9.752,-22.769999,9.752,242.99586,1000,1000,1000,1000,0.0,0.0,0.0,0.0,1010.8,26.0,20.416851,48.726532,21.406147,0.48726532,-3.62109,0.89449656,1.4999735,-3.575675,1.0995612,-0.18230096,0.12410802,0.04686644,2.1602325
15:17:20.607;-0.11492168,-0.5363012,8.0445175,-0.30687392,0.18050826,-0.25832558,10.948,-22.954,8.740001,244.83191,1000,1000,1000,1000,0.0,0.0,0.0,0.0,1010.83997,25.9,20.083923,34.074013,21.259623,0.3407401,-3.6285505,0.89506227,1.4917132,-3.813687,0.816643,-0.18598345,0.12627411,0.04742864,0.32418823
15:17:20.622;-0.11492168,-0.5363012,8.0445175,-0.30687392,0.18050826,-0.25832558,10.948,-22.954,8.740001,244.83191,1000,1000,1000,1000,0.0,0.0,0.0,0.0,1010.83997,25.9,20.083923,34.074013,21.259623,0.3407401,-3.6367643,0.8961474,1.4791108,-3.813687,0.816643,-0.19058655,0.12898174,0.04355376,0.32418823
15:17:20.635;-0.11492168,-0.5363012,8.0445175,-0.30687392,0.18050826,-0.25832558,10.948,-22.954,8.740001,244.83191,1000,1000,1000,1000,0.0,0.0,0.0,0.0,1010.8,25.9,20.416851,34.074013,21.259623,0.3407401,-3.6442125,0.896857,1.4671159,-3.813687,0.816643,-0.1945759,0.13132834,0.040195525,0.32418823
15:17:20.649;-0.11492168,-0.49799395,8.00621,0.05933702,0.30257857,0.04685022,10.948,-22.954,8.740001,244.83191,1000,1000,1000,1000,0.0,0.0,0.0,0.0,1010.8,25.9,20.416851,34.074013,21.259623,0.3407401,-3.6416922,0.89948696,1.4549545,-3.558901,0.8207849,-0.19374518,0.13556445,0.03657897,0.32418823
15:17:20.664;-0.11492168,-0.49799395,8.0445175,-0.24583876,0.058437943,-0.014184937,10.948,-22.954,8.832,244.83191,1000,1000,1000,1000,0.0,0.0,0.0,0.0,1010.8,25.9,20.416851,34.074013,21.259623,0.3407401,-3.6433122,0.89869404,1.4471712,-3.5420008,0.81689197,-0.19743276,0.13644102,0.03728172,0.32418823
15:17:20.681;-0.11492168,-0.49799395,8.0445175,-0.24583876,0.058437943,-0.014184937,10.948,-22.954,8.832,244.83191,1000,1000,1000,1000,0.0,0.0,0.0,0.0,1010.68,25.9,21.418272,34.074013,21.259623,0.3407401,-3.6451406,0.8979743,1.4385235,-3.5420008,0.81689197,-0.20136617,0.13737603,0.037054762,0.32418823
15:17:20.693;-0.11492168,-0.49799395,8.0445175,-0.24583876,0.058437943,-0.014184937,10.948,-22.954,8.832,244.83191,1000,1000,1000,1000,0.0,0.0,0.0,0.0,1010.68,25.9,21.418272,34.074013,21.259623,0.3407401,-3.64621,0.8970972,1.429983,-3.5420008,0.81689197,-0.20456207,0.13813572,0.036870357,0.32418823
15:17:20.707;-0.11492168,-0.49799395,8.00621,-0.1848036,0.058437943,-0.1972904,10.948,-22.954,8.832,244.83191,1000,1000,1000,1000,0.0,0.0,0.0,0.0,1010.68,25.9,21.418272,34.074013,21.259623,0.3407401,-3.6469994,0.8963727,1.4214925,-3.558901,0.8207849,-0.20714931,0.13895385,0.03667177,0.32418823
15:17:20.722;-0.15322891,-0.49799395,8.0445175,-0.12376845,0.1194731,-0.014184937,10.948,-22.954,8.832,244.83191,1000,1000,1000,1000,0.0,0.0,0.0,0.0,1010.68,25.9,21.418272,34.074013,21.259623,0.3407401,-3.6467133,0.9019841,1.4103255,-3.5417204,1.0891318,-0.20900583,0.14074595,0.033712413,0.32418823
15:17:20.739;-0.15322891,-0.49799395,8.0445175,-0.12376845,0.1194731,-0.014184937,10.948,-22.954,8.832,244.83191,1000,1000,1000,1000,0.0,0.0,0.0,0.0,1010.68,25.9,21.418272,34.074013,21.259623,0.3407401,-3.6465542,0.9076004,1.4019542,-3.5417204,1.0891318,-0.21098612,0.14265752,0.033485454,0.32418823
15:17:20.751;-0.19153613,-0.45968673,7.967903,-0.12376845,0.058437943,-0.07522009,10.948,-22.954,8.740001,244.83191,1000,1000,1000,1000,0.0,0.0,0.0,0.0,1010.77997,25.9,20.583313,34.074013,21.259623,0.3407401,-3.6412182,0.91768795,1.3936878,-3.3009143,1.374752,-0.2125951,0.14341721,0.033301048,0.32418823
15:17:20.765;-0.19153613,-0.45968673,7.967903,-0.12376845,0.058437943,-0.07522009,10.948,-22.954,8.740001,244.83191,1000,1000,1000,1000,0.0,0.0,0.0,0.0,1010.77997,25.9,20.583313,41.331158,21.332193,0.41331157,-3.6361103,0.927631,1.3846214,-3.3009143,1.374752,-0.21432786,0.14423534,0.032247968,0.32418823
15:17:20.780;-0.15322891,-0.49799395,8.00621,-0.1848036,-0.18570268,-0.014184937,10.948,-22.954,8.740001,244.83191,1000,1000,1000,1000,0.0,0.0,0.0,0.0,1010.77997,25.9,20.583313,41.331158,21.332193,0.41331157,-3.6372771,0.928235,1.3755482,-3.5586169,1.0943217,-0.2170999,0.14144981,0.031119667,0.32418823
15:17:20.797;-0.15322891,-0.49799395,8.00621,-0.1848036,-0.18570268,-0.014184937,10.948,-22.954,8.740001,244.83191,1000,1000,1000,1000,0.0,0.0,0.0,0.0,1010.83997,26.0,20.083923,41.331158,21.332193,0.41331157,-3.6386015,0.9286449,1.3674377,-3.5586169,1.0943217,-0.22005676,0.13847856,0.030892707,0.32418823
15:17:20.811;-0.11492168,-0.49799395,7.967903,-0.1848036,0.1194731,0.16892053,11.04,-22.954,8.740001,244.97163,1000,1000,1000,1000,0.0,0.0,0.0,0.0,1010.83997,26.0,20.083923,34.074013,21.259623,0.3407401,-3.6398842,0.9282055,1.3583683,-3.5759635,0.8247152,-0.222644,0.14015119,0.030694118,0.1844635
15:17:20.823;-0.11492168,-0.49799395,7.967903,-0.1848036,0.1194731,0.16892053,11.04,-22.954,8.740001,244.97163,1000,1000,1000,1000,0.0,0.0,0.0,0.0,1010.83997,26.0,20.083923,34.074013,21.259623,0.3407401,-3.6409602,0.9276578,1.3517435,-3.5759635,0.8247152,-0.22504644,0.14170434,0.032890085,0.1844635
15:17:20.842;-0.11492168,-0.49799395,8.00621,-0.0016981363,-0.124667525,-0.13625525,11.04,-22.954,8.740001,244.97163,1000,1000,1000,1000,0.0,0.0,0.0,0.0,1010.86,25.9,19.917461,34.074013,21.259623,0.3407401,-3.639349,0.9233212,1.3460065,-3.558901,0.8207849,-0.225077,0.13946033,0.035930656,0.1844635
15:17:20.854;-0.11492168,-0.49799395,8.00621,-0.0016981363,-0.124667525,-0.13625525,11.04,-22.954,8.740001,244.97163,1000,1000,1000,1000,0.0,0.0,0.0,0.0,1010.86,25.9,19.917461,34.074013,21.259623,0.3407401,-3.63776,0.91980433,1.3356721,-3.558901,0.8207849,-0.22509739,0.13796431,0.034295592,0.1844635
15:17:20.869;-0.11492168,-0.49799395,8.00621,-0.0016981363,-0.124667525,-0.13625525,11.04,-22.954,8.740001,244.97163,1000,1000,1000,1000,0.0,0.0,0.0,0.0,1010.86,25.9,19.917461,34.074013,21.259623,0.3407401,-3.6362095,0.9158691,1.3248743,-3.558901,0.8207849,-0.22512455,0.13596962,0.032115508,0.1844635
15:17:20.883;-0.19153613,-0.49799395,7.967903,-0.24583876,-0.06363237,-0.07522009,11.132,-22.862001,8.740001,245.10489,1000,1000,1000,1000,0.0,0.0,0.0,0.0,1010.77997,25.9,20.583313,34.074013,21.259623,0.3407401,-3.6383643,0.92416584,1.3134285,-3.5753043,1.3743565,-0.22856629,0.13507877,0.030207934,0.051208496
15:17:20.899;-0.19153613,-0.49799395,7.967903,-0.24583876,-0.06363237,-0.07522009,11.132,-22.862001,8.740001,245.10489,1000,1000,1000,1000,0.0,0.0,0.0,0.0,1010.77997,25.9,20.583313,34.074013,21.259623,0.3407401,-3.6409578,0.9321719,1.3027674,-3.5753043,1.3743565,-0.2324997,0.13406065,0.029004412,0.051208496
15:17:20.910;-0.15322891,-0.49799395,7.967903,-0.06273329,-0.06363237,0.107885376,11.132,-22.862001,8.740001,245.10489,1000,1000,1000,1000,0.0,0.0,0.0,0.0,1010.77997,25.9,20.583313,34.074013,21.259623,0.3407401,-3.6403284,0.9348337,1.2925595,-3.575675,1.0995612,-0.23318978,0.1333607,0.028176991,0.051208496
15:17:20.924;-0.15322891,-0.49799395,7.967903,-0.06273329,-0.06363237,0.107885376,11.132,-22.862001,8.740001,245.10489,1000,1000,1000,1000,0.0,0.0,0.0,0.0,1010.77997,26.0,20.583313,34.074013,21.259623,0.3407401,-3.6398962,0.9372552,1.2847484,-3.575675,1.0995612,-0.23406804,0.13246985,0.029687386,0.051208496
15:17:20.939;-0.11492168,-0.49799395,7.967903,-0.12376845,-0.0025972128,-0.014184937,11.04,-22.954,8.832,244.97163,1000,1000,1000,1000,0.0,0.0,0.0,0.0,1010.77997,26.0,20.583313,34.074013,21.259623,0.3407401,-3.6403155,0.9349662,1.2781024,-3.5759635,0.8247152,-0.23580079,0.1324309,0.031305667,0.1844635
15:17:20.953;-0.11492168,-0.49799395,7.967903,-0.12376845,-0.0025972128,-0.014184937,11.04,-22.954,8.832,244.97163,1000,1000,1000,1000,0.0,0.0,0.0,0.0,1010.77997,26.0,20.583313,34.074013,21.259623,0.3407401,-3.640848,0.93272555,1.2697029,-3.5759635,0.8247152,-0.23765731,0.13239454,0.031107077,0.1844635
15:17:20.967;-0.11492168,-0.49799395,8.00621,-0.06273329,-0.124667525,0.04685022,11.04,-22.954,8.832,244.97163,1000,1000,1000,1000,0.0,0.0,0.0,0.0,1010.86,25.9,19.917461,34.074013,21.259623,0.3407401,-3.6400082,0.92889845,1.2613806,-3.558901,0.8207849,-0.23847283,0.13077386,0.030922674,0.1844635
15:17:20.981;-0.11492168,-0.49799395,8.00621,-0.06273329,-0.124667525,0.04685022,11.04,-22.954,8.832,244.97163,1000,1000,1000,1000,0.0,0.0,0.0,0.0,1010.86,25.9,19.917461,34.074013,21.259623,0.3407401,-3.6393082,0.9249035,1.2540011,-3.558901,0.8207849,-0.23941383,0.12890385,0.031625427,0.1844635
15:17:20.995;-0.11492168,-0.49799395,7.967903,-0.0016981363,-0.0025972128,-0.014184937,10.948,-22.862001,8.832,244.8247,1000,1000,1000,1000,0.0,0.0,0.0,0.0,1010.86,25.9,19.917461,34.074013,21.259623,0.3407401,-3.6380646,0.9228641,1.2477325,-3.5759635,0.8247152,-0.2394376,0.12886749,0.03228133,0.33139038
15:17:21.008;-0.11492168,-0.49799395,7.967903,-0.0016981363,-0.0025972128,-0.014184937,10.948,-22.862001,8.832,244.8247,1000,1000,1000,1000,0.0,0.0,0.0,0.0,1010.77997,25.9,20.583313,34.074013,21.259623,0.3407401,-3.6368442,0.92086804,1.2406769,-3.5759635,0.8247152,-0.23945966,0.12883373,0.032096926,0.33139038
15:17:21.023;-0.19153613,-0.45968673,7.967903,-0.1848036,-0.06363237,0.16892053,10.948,-22.862001,8.832,244.8247,1000,1000,1000,1000,0.0,0.0,0.0,0.0,1010.77997,25.9,20.583313,34.074013,21.259623,0.3407401,-3.632842,0.92901033,1.233646,-3.3009143,1.374752,-0.24223171,0.12787925,0.031884152,0.33139038
15:17:21.037;-0.19153613,-0.45968673,7.967903,-0.1848036,-0.06363237,0.16892053,10.948,-22.862001,8.832,244.8247,1000,1000,1000,1000,0.0,0.0,0.0,0.0,1010.77997,25.9,20.583313,34.074013,21.259623,0.3407401,-3.6285582,0.93711454,1.2290586,-3.3009143,1.374752,-0.24463415,0.12705202,0.034080118,0.33139038
15:17:21.055;-0.11492168,-0.49799395,8.00621,-0.0016981363,-0.0025972128,-0.07522009,10.948,-22.862001,8.832,244.8247,1000,1000,1000,1000,0.0,0.0,0.0,0.0,1010.77997,25.9,20.583313,34.143127,21.260313,0.34143126,-3.627195,0.93474215,1.2253438,-3.558901,0.8207849,-0.24466471,0.12700528,0.03712069,0.33139038
15:17:21.065;-0.11492168,-0.49799395,8.00621,-0.0016981363,-0.0025972128,-0.07522009,10.948,-22.862001,8.832,244.8247,1000,1000,1000,1000,0.0,0.0,0.0,0.0,1010.77997,25.9,20.583313,34.143127,21.260313,0.34143126,-3.6258473,0.932435,1.2178179,-3.558901,0.8207849,-0.2446834,0.12697671,0.03629327,0.33139038
15:17:21.079;-0.11492168,-0.5363012,7.967903,-0.1848036,0.24154341,0.16892053,11.132,-23.046,8.924,245.11789,1000,1000,1000,1000,0.0,0.0,0.0,0.0,1010.77997,25.9,20.583313,34.143127,21.260313,0.34143126,-3.6328707,0.9335894,1.2079257,-3.8502398,0.824459,-0.24727064,0.13035832,0.03524019,0.038208008
15:17:21.093;-0.11492168,-0.5363012,7.967903,-0.1848036,0.24154341,0.16892053,11.132,-23.046,8.924,245.11789,1000,1000,1000,1000,0.0,0.0,0.0,0.0,1010.72,25.9,21.085346,34.143127,21.260313,0.34143126,-3.6397536,0.93472075,1.2014999,-3.8502398,0.824459,-0.24985789,0.13373993,0.037605077,0.038208008
15:17:21.107;-0.15322891,-0.49799395,8.00621,-0.0016981363,0.058437943,-0.07522009,11.132,-23.046,8.924,245.11789,1000,1000,1000,1000,0.0,0.0,0.0,0.0,1010.72,25.9,21.085346,34.074013,21.259623,0.3407401,-3.6381543,0.93871456,1.1951224,-3.5586169,1.0943217,-0.24988165,0.13455807,0.039969966,0.038208008
15:17:21.123;-0.15322891,-0.49799395,8.00621,-0.0016981363,0.058437943,-0.07522009,11.132,-23.046,8.924,245.11789,1000,1000,1000,1000,0.0,0.0,0.0,0.0,1010.72,25.9,21.085346,34.074013,21.259623,0.3407401,-3.6365902,0.942743,1.185251,-3.5586169,1.0943217,-0.24990882,0.13549307,0.038766444,0.038208008
15:17:21.136;-0.11492168,-0.45968673,8.00621,-0.06273329,-0.06363237,-0.014184937,11.04,-22.862001,8.832,244.96478,1000,1000,1000,1000,0.0,0.0,0.0,0.0,1010.74,25.9,20.918882,34.074013,21.259623,0.3407401,-3.6303732,0.9394979,1.1768259,-3.2857642,0.821019,-0.25072435,0.13466585,0.03778858,0.1913147
15:17:21.150;-0.11492168,-0.45968673,8.00621,-0.06273329,-0.06363237,-0.014184937,11.04,-22.862001,8.832,244.96478,1000,1000,1000,1000,0.0,0.0,0.0,0.0,1010.74,25.9,20.918882,34.074013,21.259623,0.3407401,-3.624342,0.9362553,1.1692374,-3.2857642,0.821019,-0.25160262,0.133775,0.037589993,0.1913147
15:17:21.166;-0.15322891,-0.4213795,8.0445175,-0.0016981363,-0.06363237,-0.07522009,11.04,-22.862001,8.832,244.96478,1000,1000,1000,1000,0.0,0.0,0.0,0.0,1010.74,25.9,20.918882,34.074013,21.259623,0.3407401,-3.6118402,0.9383269,1.1616776,-2.9979246,1.0897226,-0.2516298,0.13275687,0.037363034,0.1913147
15:17:21.180;-0.15322891,-0.4213795,8.0445175,-0.0016981363,-0.06363237,-0.07522009,11.04,-22.862001,8.832,244.96478,1000,1000,1000,1000,0.0,0.0,0.0,0.0,1010.83997,26.0,20.083923,34.074013,21.259623,0.3407401,-3.5995836,0.9405442,1.1534293,-2.9979246,1.0897226,-0.25165188,0.13192965,0.03638517,0.1913147
15:17:21.195;-0.11492168,-0.49799395,7.967903,-0.1848036,-0.124667525,-0.07522009,11.04,-22.954,8.832,244.97163,1000,1000,1000,1000,0.0,0.0,0.0,0.0,1010.83997,26.0,20.083923,34.074013,21.259623,0.3407401,-3.6018279,0.936395,1.1450422,-3.5759635,0.8247152,-0.25442395,0.13005964,0.03525687,0.1844635
15:17:21.208;-0.11492168,-0.49799395,7.967903,-0.1848036,-0.124667525,-0.07522009,11.04,-22.954,8.832,244.97163,1000,1000,1000,1000,0.0,0.0,0.0,0.0,1010.83997,26.0,20.083923,34.074013,21.259623,0.3407401,-3.603846,0.93245095,1.1367925,-3.5759635,0.8247152,-0.2570112,0.1283143,0.03420379,0.1844635
15:17:21.223;-0.15322891,-0.5363012,7.967903,-0.1848036,0.18050826,0.04685022,11.04,-22.954,8.832,244.97163,1000,1000,1000,1000,0.0,0.0,0.0,0.0,1010.92,26.0,19.415428,34.074013,21.259623,0.3407401,-3.6114843,0.9384398,1.1285301,-3.8499293,1.0992197,-0.25978327,0.13102193,0.03307549,0.1844635
15:17:21.237;-0.15322891,-0.5363012,7.967903,-0.1848036,0.18050826,0.04685022,11.04,-22.954,8.832,244.97163,1000,1000,1000,1000,0.0,0.0,0.0,0.0,1010.92,26.0,19.415428,34.074013,21.259623,0.3407401,-3.6187887,0.944132,1.1221006,-3.8499293,1.0992197,-0.26237053,0.13354905,0.033731394,0.1844635
15:17:21.252;-0.15322891,-0.49799395,8.0445175,-0.06273329,-0.18570268,0.04685022,10.948,-22.954,8.740001,244.83191,1000,1000,1000,1000,0.0,0.0,0.0,0.0,1010.92,26.0,19.415428,34.143127,21.260313,0.34143126,-3.6181695,0.94430214,1.1168137,-3.5417204,1.0891318,-0.26331154,0.13076352,0.034434147,0.32418823
15:17:21.269;-0.15322891,-0.49799395,8.0445175,-0.06273329,-0.18570268,0.04685022,10.948,-22.954,8.740001,244.83191,1000,1000,1000,1000,0.0,0.0,0.0,0.0,1010.83997,26.0,20.083923,34.143127,21.260313,0.34143126,-3.6176858,0.9441049,1.1116594,-3.5417204,1.0891318,-0.264378,0.12760657,0.0352306,0.32418823
15:17:21.280;-0.11492168,-0.5363012,7.967903,-0.1848036,-0.06363237,-0.07522009,10.948,-22.954,8.740001,244.83191,1000,1000,1000,1000,0.0,0.0,0.0,0.0,1010.83997,26.0,20.083923,34.143127,21.260313,0.34143126,-3.6243289,0.94102603,1.1062648,-3.8502398,0.824459,-0.26641086,0.12690662,0.035745952,0.32418823
15:17:21.294;-0.11492168,-0.5363012,7.967903,-0.1848036,-0.06363237,-0.07522009,10.948,-22.954,8.740001,244.83191,1000,1000,1000,1000,0.0,0.0,0.0,0.0,1010.83997,26.0,20.083923,34.074013,21.259623,0.3407401,-3.6313827,0.9378216,1.099354,-3.8502398,0.824459,-0.26899812,0.12601577,0.034692872,0.32418823
15:17:21.308;-0.076614454,-0.45968673,8.0445175,0.05933702,0.18050826,0.04685022,10.948,-22.954,8.740001,244.83191,1000,1000,1000,1000,0.0,0.0,0.0,0.0,1010.83997,26.0,20.083923,34.074013,21.259623,0.3407401,-3.623348,0.9324372,1.0924951,-3.27034,0.544769,-0.2681674,0.12854289,0.033639792,0.32418823
15:17:21.323;-0.076614454,-0.45968673,8.0445175,0.05933702,0.18050826,0.04685022,10.948,-22.954,8.740001,244.83191,1000,1000,1000,1000,0.0,0.0,0.0,0.0,1010.83997,26.0,20.083923,34.074013,21.259623,0.3407401,-3.6154156,0.9273373,1.0874302,-3.27034,0.544769,-0.26727736,0.13125052,0.034342546,0.32418823
15:17:21.336;-0.15322891,-0.49799395,7.967903,-0.30687392,0.18050826,0.107885376,11.04,-23.046,8.740001,244.97845,1000,1000,1000,1000,0.0,0.0,0.0,0.0,1010.83997,26.0,20.083923,34.074013,21.259623,0.3407401,-3.6185305,0.93308145,1.0812113,-3.575675,1.0995612,-0.27126673,0.13359712,0.034951597,0.17764282
15:17:21.351;-0.15322891,-0.49799395,7.967903,-0.30687392,0.18050826,0.107885376,11.04,-23.046,8.740001,244.97845,1000,1000,1000,1000,0.0,0.0,0.0,0.0,1010.83997,25.9,20.083923,31.654964,21.235432,0.31654966,-3.6218839,0.9388876,1.0759336,-3.575675,1.0995612,-0.27556297,0.13612424,0.036461994,0.17764282
15:17:21.366;-0.11492168,-0.5363012,8.00621,-0.1848036,0.18050826,-0.13625525,11.04,-23.046,8.740001,244.97845,1000,1000,1000,1000,0.0,0.0,0.0,0.0,1010.83997,25.9,20.083923,31.654964,21.235432,0.31654966,-3.6289816,0.9393509,1.0709096,-3.8318763,0.82053244,-0.27851984,0.13901237,0.03818816,0.17764282
15:17:21.380;-0.11492168,-0.5363012,8.00621,-0.1848036,0.18050826,-0.13625525,11.04,-23.046,8.740001,244.97845,1000,1000,1000,1000,0.0,0.0,0.0,0.0,1010.83997,25.9,20.083923,31.654964,21.235432,0.31654966,-3.635575,0.9394511,1.0623168,-3.8318763,0.82053244,-0.2811071,0.14153948,0.036280587,0.17764282
15:17:21.393;-0.11492168,-0.49799395,8.00621,-0.0016981363,0.30257857,0.16892053,11.132,-22.954,8.924,245.1114,1000,1000,1000,1000,0.0,0.0,0.0,0.0,1010.86,25.9,19.917461,51.28381,21.43172,0.5128381,-3.6340632,0.94093263,1.0529265,-3.558901,0.8207849,-0.28112918,0.145473,0.034509268,0.044692993
15:17:21.407;-0.11492168,-0.49799395,8.00621,-0.0016981363,0.30257857,0.16892053,11.132,-22.954,8.924,245.1114,1000,1000,1000,1000,0.0,0.0,0.0,0.0,1010.86,25.9,19.917461,51.28381,21.43172,0.5128381,-3.6325834,0.942681,1.047712,-3.558901,0.8207849,-0.28115296,0.1497091,0.036874156,0.044692993
15:17:21.422;-0.15322891,-0.49799395,7.967903,0.120372176,-0.0025972128,-0.014184937,11.132,-22.954,8.924,245.1114,1000,1000,1000,1000,0.0,0.0,0.0,0.0,1010.86,25.9,19.917461,51.28381,21.43172,0.5128381,-3.6296759,0.9457804,1.0427041,-3.575675,1.0995612,-0.2793474,0.14967015,0.039407965,0.044692993
15:17:21.436;-0.15322891,-0.49799395,7.967903,0.120372176,-0.0025972128,-0.014184937,11.132,-22.954,8.924,245.1114,1000,1000,1000,1000,0.0,0.0,0.0,0.0,1010.83997,25.9,20.083923,34.074013,21.259623,0.3407401,-3.6269443,0.94882035,1.0350219,-3.575675,1.0995612,-0.2776622,0.1496338,0.039209377,0.044692993
15:17:21.450;-0.15322891,-0.49799395,7.929596,0.05933702,0.18050826,-0.1972904,11.04,-23.046,8.832,244.97845,1000,1000,1000,1000,0.0,0.0,0.0,0.0,1010.83997,25.9,20.083923,34.074013,21.259623,0.3407401,-3.6254494,0.9544175,1.0283945,-3.5928972,1.1048509,-0.27683148,0.15216091,0.03901079,0.17764282
15:17:21.464;-0.15322891,-0.49799395,7.929596,0.05933702,0.18050826,-0.1972904,11.04,-23.046,8.832,244.97845,1000,1000,1000,1000,0.0,0.0,0.0,0.0,1010.83997,25.9,20.083923,34.074013,21.259623,0.3407401,-3.6239843,0.95990276,1.0192724,-3.5928972,1.1048509,-0.27600077,0.15468803,0.036248725,0.17764282
15:17:21.478;-0.11492168,-0.45968673,7.967903,-0.12376845,0.058437943,0.16892053,11.04,-23.046,8.832,244.97845,1000,1000,1000,1000,0.0,0.0,0.0,0.0,1010.72,26.0,21.085346,34.074013,21.259623,0.3407401,-3.6192334,0.95800555,1.0102189,-3.3015232,0.8249526,-0.27773353,0.15550616,0.03348666,0.17764282
15:17:21.492;-0.11492168,-0.45968673,7.967903,-0.12376845,0.058437943,0.16892053,11.04,-23.046,8.832,244.97845,1000,1000,1000,1000,0.0,0.0,0.0,0.0,1010.72,26.0,21.085346,34.074013,21.259623,0.3407401,-3.6145775,0.95614624,1.0063217,-3.3015232,0.8249526,-0.2794663,0.1563243,0.03585155,0.17764282
15:17:21.508;-0.076614454,-0.5363012,7.967903,-0.12376845,-0.0025972128,-0.07522009,11.04,-23.046,8.832,244.97845,1000,1000,1000,1000,0.0,0.0,0.0,0.0,1010.72,26.0,21.085346,31.58585,21.234741,0.31585848,-3.6212358,0.9479758,1.002789,-3.8504615,0.5496604,-0.2814466,0.15628274,0.038554277,0.17764282
15:17:21.522;-0.076614454,-0.5363012,7.967903,-0.12376845,-0.0025972128,-0.07522009,11.04,-23.046,8.832,244.97845,1000,1000,1000,1000,0.0,0.0,0.0,0.0,1010.86,26.0,19.917461,31.58585,21.234741,0.31585848,-3.6275187,0.9399739,0.9955553,-3.8504615,0.5496604,-0.28317937,0.15624638,0.037501197,0.17764282
15:17:21.538;-0.11492168,-0.49799395,8.00621,-0.12376845,-0.0025972128,0.22995569,10.948,-23.046,8.832,244.83905,1000,1000,1000,1000,0.0,0.0,0.0,0.0,1010.86,26.0,19.917461,31.58585,21.234741,0.31585848,-3.628087,0.93754935,0.989272,-3.558901,0.8207849,-0.28515968,0.15620482,0.036297675,0.31704712
15:17:21.551;-0.11492168,-0.49799395,8.00621,-0.12376845,-0.0025972128,0.22995569,10.948,-23.046,8.832,244.83905,1000,1000,1000,1000,0.0,0.0,0.0,0.0,1010.86,26.0,19.917461,31.58585,21.234741,0.31585848,-3.6282802,0.93518096,0.98719734,-3.558901,0.8207849,-0.28676867,0.15617105,0.039287098,0.31704712
15:17:21.565;-0.11492168,-0.5363012,8.00621,-0.24583876,0.058437943,0.22995569,10.948,-23.046,8.832,244.83905,1000,1000,1000,1000,0.0,0.0,0.0,0.0,1010.83997,26.0,20.083923,31.58585,21.234741,0.31585848,-3.635725,0.9336898,0.98536646,-3.8318763,0.82053244,-0.29021043,0.15698919,0.04250648,0.31704712
