22:12:39.561;X[m/s²],Y[m/s²],Z[m/s²],X[°/s],Y[°/s],Z[°/s],X[µT],Y[µT],Z[µT],Direção[°],R1[µsec],R2[µsec],R3[µsec],R4[µsec],R1[RPM],R2[RPM],R3[RPM],R4[RPM],Baro [hPa],Baro [°C],Baro [m],Down[cm],Abs [m],Rel [m],X [°],Y [°],Z [°],Acce X[°],Acce Y[°],Gyro X[°],Gyro Y[°],Gyro Z[°],Mag Z[°]
22:12:39.568;0.038307227,-0.5746084,8.121132,-0.3454554,0.31836784,0.8595931,-27.324,6.6239996,9.2,144.14261,0,0,0,0,0.0,0.0,0.0,0.0,1009.23,27.9,33.52253,9999999.0,33.52253,99999.99,-3.642441,-0.60687256,0.0,-4.047157,-0.26958716,0.0,0.0,0.0,0.0
22:12:39.574;0.030645782,-0.5669469,8.105809,-0.2233851,0.19629753,0.24924153,-27.324,6.5871997,9.1816,144.21552,0,0,0,0,0.0,0.0,0.0,0.0,1009.31,28.0,32.854034,9999999.0,32.854034,9999999.0,-3.6619537,-0.560284,-0.027857317,-4.0009108,-0.21609026,-0.004467702,0.0039259503,0.01719186,-0.072906494
22:12:39.586;0.024516625,-0.5608178,8.093551,-0.2233851,0.19629753,0.24924153,-27.324,6.55776,9.16688,144.27388,0,0,0,0,0.0,0.0,0.0,0.0,1009.31,28.0,32.854034,9999999.0,32.854034,9999999.0,-3.6236994,-0.51796234,-0.033019714,-3.9637814,-0.17314215,-0.007148323,0.0062815207,0.020182759,-0.13127136
22:12:39.596;0.0196133,-0.5635759,8.083744,-0.16234994,0.44043815,0.7375228,-27.324,6.534208,9.155104,144.32059,0,0,0,0,0.0,0.0,0.0,0.0,1009.31,28.0,32.854034,9999999.0,32.854034,9999999.0,-3.641191,-0.4884887,-0.028525848,-3.9880362,-0.13867782,-0.008771823,0.010685902,0.022675173,-0.17797852
22:12:39.607;0.01569064,-0.5657824,8.075899,-0.16234994,0.44043815,0.7375228,-27.324,6.515366,9.145683,144.35796,0,0,0,0,0.0,0.0,0.0,0.0,1009.29,27.9,33.020496,9999999.0,33.020496,9999999.0,-3.6557596,-0.4650342,-0.017553348,-4.00748,-0.11104747,-0.010557672,0.015530722,0.030787924,-0.21534729
22:12:39.619;0.004891066,-0.5445633,8.061961,-0.3454554,0.31836784,-0.23903972,-27.324,6.5370927,9.156547,144.31487,0,0,0,0,0.0,0.0,0.0,0.0,1009.29,27.9,33.020496,9999999.0,33.020496,9999999.0,-3.524789,-0.38331017,0.032587834,-3.8643014,-0.03468142,-0.014703137,0.019351136,0.0396382,-0.17225647
22:12:39.628;-0.003748593,-0.527588,8.050811,-0.3454554,0.31836784,-0.23903972,-27.324,6.554474,9.165237,144.2804,0,0,0,0,0.0,0.0,0.0,0.0,1009.29,27.9,33.020496,9999999.0,33.020496,9999999.0,-3.4130673,-0.31706148,0.05227214,-3.7493618,0.026620777,-0.017812235,0.022216447,0.03748684,-0.13778687
22:12:39.639;-0.0106603205,-0.51400775,8.041891,-0.3454554,0.31836784,-0.23903972,-27.324,6.568379,9.17219,144.25282,0,0,0,0,0.0,0.0,0.0,0.0,1009.29,27.9,33.020496,9999999.0,33.020496,9999999.0,-3.3235257,-0.26378554,0.05735109,-3.657155,0.0757965,-0.021612246,0.025718493,0.034857403,-0.11021423
22:12:39.648;-0.008528257,-0.5184664,8.034755,-0.3454554,0.13526237,0.49338216,-27.324,6.579503,9.177752,144.23077,0,0,0,0,0.0,0.0,0.0,0.0,1009.35,27.9,32.521107,9999999.0,32.521107,9999999.0,-3.349543,-0.28021276,0.056053042,-3.6920595,0.060688697,-0.024721345,0.026935855,0.032706045,-0.08816528
22:12:39.658;-0.0068226056,-0.5220334,8.029046,-0.3454554,0.13526237,0.49338216,-27.324,6.5884023,9.182201,144.21313,0,0,0,0,0.0,0.0,0.0,0.0,1009.35,27.9,32.521107,9999999.0,32.521107,9999999.0,-3.37639,-0.2937782,0.055666037,-3.7200258,0.04858395,-0.028175898,0.028288478,0.037639868,-0.07052612
22:12:39.670;-0.0054580844,-0.52488697,8.024479,-0.3454554,0.13526237,0.49338216,-27.324,6.595522,9.185761,144.19902,0,0,0,0,0.0,0.0,0.0,0.0,1009.35,27.9,32.521107,9999999.0,32.521107,9999999.0,-3.3979757,-0.3046358,0.056670435,-3.7424262,0.038888294,-0.032321364,0.029911626,0.043560453,-0.056411743
22:12:39.680;-0.0043664677,-0.5348312,8.028486,-0.040279627,0.5014733,0.7375228,-27.3424,6.5828176,9.170209,144.23299,0,0,0,0,0.0,0.0,0.0,0.0,1009.35,27.9,32.521107,9999999.0,32.521107,9999999.0,-3.4606051,-0.3175757,0.03559932,-3.8112237,0.031092644,-0.03272416,0.03492636,0.048494276,-0.09037781
22:12:39.688;-0.0034931742,-0.54278666,8.0316925,-0.040279627,0.5014733,0.7375228,-27.35712,6.5726542,9.157767,144.26012,0,0,0,0,0.0,0.0,0.0,0.0,1009.29,28.0,33.020496,9999999.0,33.020496,9999999.0,-3.5113738,-0.32835987,0.031431824,-3.8662045,0.024862586,-0.0330464,0.038938146,0.054394457,-0.117507935
22:12:39.699;-0.0027945393,-0.549151,8.034258,-0.040279627,0.5014733,0.7375228,-27.368896,6.564523,9.147814,144.28181,0,0,0,0,0.0,0.0,0.0,0.0,1009.29,28.0,33.020496,9999999.0,33.020496,9999999.0,-3.5520132,-0.33680543,0.035751756,-3.9101522,0.01988268,-0.033449195,0.04395288,0.061769687,-0.13920593
22:12:39.710;-0.009897077,-0.53125817,8.03631,-0.2233851,0.25733268,-0.11696941,-27.378317,6.5580187,9.139851,144.29916,0,0,0,0,0.0,0.0,0.0,0.0,1009.29,28.0,33.020496,9999999.0,33.020496,9999999.0,-3.4378693,-0.2801361,0.044142477,-3.782159,0.07040861,-0.03590643,0.046783537,0.06988244,-0.15655518
22:12:39.719;-0.015579108,-0.5169439,8.037951,-0.2233851,0.25733268,-0.11696941,-27.385853,6.552815,9.13348,144.31303,0,0,0,0,0.0,0.0,0.0,0.0,1009.29,28.0,33.020496,9999999.0,33.020496,9999999.0,-3.3400412,-0.23400769,0.04949249,-3.6797824,0.11082124,-0.038140282,0.049356863,0.06871274,-0.17042542
22:12:39.729;-0.020124732,-0.50549245,8.039265,-0.2233851,0.25733268,-0.11696941,-27.391882,6.548652,9.128384,144.32413,0,0,0,0,0.0,0.0,0.0,0.0,1009.25,28.0,33.356064,9999999.0,33.356064,9999999.0,-3.2617278,-0.19708423,0.0529712,-3.597893,0.14314581,-0.040374134,0.05193019,0.067543045,-0.18151855
22:12:39.739;-0.016099785,-0.51931566,8.040316,-0.6506312,0.31836784,0.3102767,-27.378305,6.545322,9.142707,144.32428,0,0,0,0,0.0,0.0,0.0,0.0,1009.25,28.0,33.356064,9999999.0,33.356064,9999999.0,-3.34634,-0.23127523,0.05959598,-3.6955345,0.11448933,-0.046880446,0.055113867,0.06637335,-0.18167114
22:12:39.749;-0.012879828,-0.5303742,8.041156,-0.6506312,0.31836784,0.3102767,-27.367445,6.5426574,9.154165,144.32442,0,0,0,0,0.0,0.0,0.0,0.0,1009.25,28.0,33.356064,9999999.0,33.356064,9999999.0,-3.419965,-0.25929356,0.06431225,-3.7736135,0.0915738,-0.052736126,0.057979178,0.06916584,-0.18180847
22:12:39.759;-0.010303862,-0.53922105,8.041828,-0.6506312,0.31836784,0.3102767,-27.358755,6.540526,9.163332,144.32452,0,0,0,0,0.0,0.0,0.0,0.0,1009.25,28.0,33.356064,9999999.0,33.356064,9999999.0,-3.4790936,-0.2816363,0.06839216,-3.836054,0.07324763,-0.059893068,0.061481223,0.072578885,-0.18191528
22:12:39.769;-0.00824309,-0.5462985,8.057689,-0.28442025,0.56250846,0.24924153,-27.351805,6.5388207,9.170666,144.32462,0,0,0,0,0.0,0.0,0.0,0.0,1009.29,28.0,33.020496,9999999.0,33.020496,9999999.0,-3.5192108,-0.29872674,0.07199113,-3.8786254,0.058479838,-0.06273727,0.06710631,0.07568165,-0.18200684
22:12:39.779;-0.0065944716,-0.55196047,8.070377,-0.28442025,0.56250846,0.24924153,-27.346243,6.5374565,9.176533,144.32468,0,0,0,0,0.0,0.0,0.0,0.0,1009.29,28.0,33.020496,9999999.0,33.020496,9999999.0,-3.5514596,-0.3125459,0.07505208,-3.9125583,0.046708435,-0.06558147,0.07273139,0.07817406,-0.18206787
22:12:39.792;-0.0052755773,-0.55649006,8.080528,-0.28442025,0.56250846,0.24924153,-27.341795,6.536365,9.181226,144.32474,0,0,0,0,0.0,0.0,0.0,0.0,1009.29,28.0,33.020496,9999999.0,33.020496,9999999.0,-3.5772595,-0.3234642,0.078078,-3.9396262,0.037318602,-0.068994515,0.07948149,0.08116496,-0.1821289
22:12:39.799;-0.0118819075,-0.52946794,8.050342,-0.2233851,0.56250846,-0.23903972,-27.117435,6.480292,8.964181,144.3296,0,0,0,0,0.0,0.0,0.0,0.0,1009.29,28.0,33.020496,9999999.0,33.020496,9999999.0,-3.4191337,-0.2655183,0.07818467,-3.7628984,0.084383376,-0.070781596,0.08398156,0.083158895,-0.18699646
22:12:39.811;-0.017166972,-0.5078502,8.026193,-0.2233851,0.56250846,-0.23903972,-26.937948,6.4354334,8.7905445,144.33357,0,0,0,0,0.0,0.0,0.0,0.0,1009.29,28.0,33.020496,9999999.0,33.020496,9999999.0,-3.2852519,-0.2178334,0.07737342,-3.6205049,0.12230338,-0.073238835,0.090169154,0.08052946,-0.19096375
22:12:39.822;-0.021395024,-0.4905561,8.006873,-0.2233851,0.56250846,-0.23903972,-26.79436,6.3995466,8.651636,144.33678,0,0,0,0,0.0,0.0,0.0,0.0,1009.29,28.0,33.020496,9999999.0,33.020496,9999999.0,-3.1773958,-0.17953366,0.07591503,-3.5059385,0.15281214,-0.07591946,0.09691925,0.077660985,-0.19416809
22:12:39.831;-0.01711602,-0.4997051,8.014402,-0.40649056,0.44043815,0.37131184,-26.679487,6.370837,8.540509,144.33936,0,0,0,0,0.0,0.0,0.0,0.0,1009.29,28.0,33.020496,9999999.0,33.020496,9999999.0,-3.2293534,-0.21262482,0.07442296,-3.567816,0.12212682,-0.07957787,0.10088319,0.07550963,-0.19674683
22:12:39.841;-0.013692816,-0.50702435,8.020426,-0.40649056,0.44043815,0.37131184,-26.58759,6.34787,8.451608,144.34145,0,0,0,0,0.0,0.0,0.0,0.0,1009.29,28.0,33.020496,9999999.0,33.020496,9999999.0,-3.2771738,-0.23941639,0.07577763,-3.6172278,0.09762285,-0.08364277,0.105287574,0.079222746,-0.19883728
22:12:39.863;-0.010954252,-0.5128797,8.025244,-0.40649056,0.44043815,0.37131184,-26.51407,6.329496,8.3804865,144.34312,0,0,0,0,0.0,0.0,0.0,0.0,1009.37,28.0,32.352,9999999.0,32.352,9999999.0,-3.3158658,-0.26037443,0.080745384,-3.6567,0.078048006,-0.09258556,0.11497721,0.08739161,-0.20051575
22:12:39.875;-0.008763402,-0.5328869,8.044421,-0.2233851,0.44043815,0.3102767,-26.473656,6.3331966,8.3419895,144.3158,0,0,0,0,0.0,0.0,0.0,0.0,1009.37,28.0,32.352,9999999.0,32.352,9999999.0,-3.437222,-0.28714156,0.09996061,-3.7899075,0.06228014,-0.095266186,0.12026247,0.09184735,-0.17318726
22:12:39.885;-0.0070107216,-0.5488927,8.059763,-0.2233851,0.44043815,0.3102767,-26.441324,6.3361573,8.311192,144.29387,0,0,0,0,0.0,0.0,0.0,0.0,1009.37,28.0,32.352,9999999.0,32.352,9999999.0,-3.5353262,-0.3083414,0.10841881,-3.8959875,0.049723096,-0.09750003,0.12466685,0.09495012,-0.15126038
22:12:39.896;-0.0056085773,-0.5463744,8.041391,-0.10131478,0.31836784,0.18820637,-26.415459,6.338526,8.286553,144.2763,0,0,0,0,0.0,0.0,0.0,0.0,1009.23,28.0,33.52253,9999999.0,33.52253,9999999.0,-3.5292466,-0.31669164,0.11217242,-3.8870013,0.039869785,-0.0986145,0.1281689,0.09836316,-0.13369751
22:12:39.906;-0.0044868616,-0.54435974,8.026693,-0.10131478,0.31836784,0.18820637,-26.394768,6.3404207,8.266843,144.26222,0,0,0,0,0.0,0.0,0.0,0.0,1009.23,28.0,33.52253,9999999.0,33.52253,9999999.0,-3.5235648,-0.32331088,0.113156654,-3.8797827,0.03195451,-0.09952633,0.13103421,0.10005702,-0.11961365
22:12:39.917;-0.0035894893,-0.54274803,8.0149355,-0.10131478,0.31836784,0.18820637,-26.378214,6.3419366,8.251075,144.25095,0,0,0,0,0.0,0.0,0.0,0.0,1009.23,28.0,33.52253,9999999.0,33.52253,9999999.0,-3.5190418,-0.328481,0.1133742,-3.8739882,0.025601285,-0.10074211,0.13485463,0.1023155,-0.1083374
22:12:39.926;-0.0028715914,-0.54145867,8.005529,-0.10131478,0.31836784,0.18820637,-26.364971,6.343149,8.23846,144.24191,0,0,0,0,0.0,0.0,0.0,0.0,1009.23,28.0,33.52253,9999999.0,33.52253,9999999.0,-3.5153456,-0.33279335,0.11320838,-3.8693404,0.020505205,-0.10165394,0.13771994,0.10400936,-0.0993042
22:12:39.936;-0.009958719,-0.5174428,8.005666,-0.40649056,0.44043815,-0.30007488,-26.317577,6.3441195,8.228368,144.21645,0,0,0,0,0.0,0.0,0.0,0.0,1009.19,28.0,33.855457,9999999.0,33.855457,9999999.0,-3.3620133,-0.2717483,0.12228336,-3.6981416,0.07112514,-0.10571884,0.14212433,0.10589142,-0.07383728
22:12:39.946;-0.01562842,-0.49823016,8.0057745,-0.40649056,0.44043815,-0.30007488,-26.279661,6.344896,8.220294,144.19603,0,0,0,0,0.0,0.0,0.0,0.0,1009.19,28.0,33.855457,9999999.0,33.855457,9999999.0,-3.2326047,-0.22234991,0.12279515,-3.5611374,0.111633465,-0.10978375,0.1465287,0.10289067,-0.05342102
22:12:39.958;-0.02016418,-0.48286003,8.005861,-0.40649056,0.44043815,-0.30007488,-26.249329,6.3455167,8.213836,144.17964,0,0,0,0,0.0,0.0,0.0,0.0,1009.19,28.0,33.855457,9999999.0,33.855457,9999999.0,-3.1290784,-0.18273658,0.11923643,-3.4515064,0.14404751,-0.114661634,0.15181397,0.099289775,-0.03703308
22:12:39.967;-0.02379279,-0.49354827,8.005931,-0.10131478,0.19629753,0.37131184,-26.225063,6.3460135,8.208669,144.1665,0,0,0,0,0.0,0.0,0.0,0.0,1009.19,28.0,33.855457,9999999.0,33.855457,9999999.0,-3.1932774,-0.16619255,0.11448168,-3.5276806,0.16995393,-0.115573466,0.15358065,0.0965891,-0.023895264
22:12:39.977;-0.026695678,-0.50209886,8.005987,-0.10131478,0.19629753,0.37131184,-26.20565,6.3464108,8.2045355,144.15598,0,0,0,0,0.0,0.0,0.0,0.0,1009.23,28.0,33.52253,9999999.0,33.52253,9999999.0,-3.2464685,-0.15284272,0.112656236,-3.588609,0.19067541,-0.11658661,0.15554363,0.10030222,-0.013366699
22:12:39.987;-0.029017989,-0.5089393,8.006032,-0.10131478,0.19629753,0.37131184,-26.19012,6.346729,8.201228,144.14755,0,0,0,0,0.0,0.0,0.0,0.0,1009.23,28.0,33.52253,9999999.0,33.52253,9999999.0,-3.2889962,-0.14217816,0.11254721,-3.637345,0.20725021,-0.117599756,0.1575066,0.104015335,-0.0049438477
22:12:39.998;-0.02321439,-0.52207315,8.013729,-0.16234994,0.379403,0.432347,-26.177696,6.346983,8.198583,144.14081,0,0,0,0,0.0,0.0,0.0,0.0,1009.23,28.0,33.52253,9999999.0,33.52253,9999999.0,-3.3690426,-0.18742493,0.11369568,-3.7273848,0.16562442,-0.11938561,0.16168003,0.108099766,0.0018005371
22:12:40.007;-0.018571513,-0.5325802,8.019887,-0.16234994,0.379403,0.432347,-26.167757,6.3471866,8.196466,144.1354,0,0,0,0,0.0,0.0,0.0,0.0,1009.23,28.0,33.52253,9999999.0,33.52253,9999999.0,-3.4382386,-0.22433409,0.115544096,-3.7992778,0.13238701,-0.120846756,0.16509466,0.11199089,0.0072021484
22:12:40.017;-0.01485721,-0.5409858,8.024813,-0.16234994,0.379403,0.432347,-26.159805,6.347349,8.194774,144.13107,0,0,0,0,0.0,0.0,0.0,0.0,1009.31,28.0,32.854034,9999999.0,32.854034,9999999.0,-3.4936287,-0.25372967,0.11809598,-3.8567035,0.105837576,-0.12247025,0.16888869,0.11631436,0.0115356445
22:12:40.027;-0.011885768,-0.53238744,8.013431,-0.40649056,0.5014733,-0.36111003,-26.171844,6.3658795,8.193419,144.0988,0,0,0,0,0.0,0.0,0.0,0.0,1009.31,28.0,32.854034,9999999.0,32.854034,9999999.0,-3.446606,-0.267893,0.1352869,-3.8009636,0.08479588,-0.12612867,0.17340195,0.120205484,0.043807983
22:12:40.037;-0.009508614,-0.52550876,8.004325,-0.40649056,0.5014733,-0.36111003,-26.181475,6.3807034,8.192336,144.07301,0,0,0,0,0.0,0.0,0.0,0.0,1009.31,28.0,32.854034,9999999.0,32.854034,9999999.0,-3.4078634,-0.27910906,0.13865376,-3.7562523,0.06791739,-0.13060006,0.17891815,0.116233274,0.06959534
22:12:40.049;-0.0076068914,-0.5200058,7.9970407,-0.40649056,0.5014733,-0.36111003,-26.18918,6.392563,8.191469,144.05241,0,0,0,0,0.0,0.0,0.0,0.0,1009.31,28.0,32.854034,9999999.0,32.854034,9999999.0,-3.3767233,-0.28817365,0.13575709,-3.720406,0.054385636,-0.13507146,0.18443435,0.112261064,0.0901947
22:12:40.057;-0.006085513,-0.5232649,7.9988747,-0.10131478,0.44043815,0.3102767,-26.195345,6.4020505,8.190776,144.03593,0,0,0,0,0.0,0.0,0.0,0.0,1009.38995,28.0,32.18554,9999999.0,32.18554,9999999.0,-3.3974302,-0.30019894,0.13062383,-3.742802,0.04349743,-0.13598329,0.1883983,0.10901108,0.106674194
22:12:40.068;-0.0048684105,-0.5258722,8.000341,-0.10131478,0.44043815,0.3102767,-26.200275,6.4096403,8.190221,144.02275,0,0,0,0,0.0,0.0,0.0,0.0,1009.38995,28.0,32.18554,9999999.0,32.18554,9999999.0,-3.4147708,-0.30968082,0.12811577,-3.7607107,0.03479085,-0.13709775,0.19324312,0.11242412,0.11985779
22:12:40.078;-0.0038947284,-0.527958,8.001515,-0.10131478,0.44043815,0.3102767,-26.20422,6.4157124,8.189776,144.01222,0,0,0,0,0.0,0.0,0.0,0.0,1009.38995,28.0,32.18554,9999999.0,32.18554,9999999.0,-3.428598,-0.31737402,0.12708561,-3.7750318,0.02782814,-0.13811089,0.1976475,0.115526885,0.13038635
22:12:40.088;-0.0031157827,-0.52196515,8.002455,-0.3454554,0.56250846,0.49338216,-26.207376,6.43897,8.171021,143.96585,0,0,0,0,0.0,0.0,0.0,0.0,1009.38995,28.0,32.18554,9999999.0,32.18554,9999999.0,-3.390728,-0.31853163,0.14588822,-3.7318666,0.022261001,-0.14121999,0.20271008,0.11831938,0.17675781
22:12:40.098;-0.0024926262,-0.5171709,8.003206,-0.3454554,0.56250846,0.49338216,-26.209902,6.4575763,8.156017,143.92879,0,0,0,0,0.0,0.0,0.0,0.0,1009.25,28.0,33.356064,9999999.0,33.356064,9999999.0,-3.3598382,-0.31933802,0.1533492,-3.697339,0.017807825,-0.14502,0.20889767,0.12374658,0.21382141
22:12:40.108;-0.0019941009,-0.5133355,8.003807,-0.3454554,0.56250846,0.49338216,-26.211922,6.472461,8.144014,143.89914,0,0,0,0,0.0,0.0,0.0,0.0,1009.25,28.0,33.356064,9999999.0,33.356064,9999999.0,-3.335027,-0.3201191,0.15583873,-3.6697197,0.014245632,-0.14847454,0.21452275,0.12868041,0.24346924
22:12:40.118;-0.0015952807,-0.51792866,7.9966264,-0.40649056,0.074227214,-0.23903972,-26.213537,6.484369,8.134412,143.87543,0,0,0,0,0.0,0.0,0.0,0.0,1009.25,28.0,33.356064,9999999.0,33.356064,9999999.0,-3.3675792,-0.32642546,0.15633586,-3.7057796,0.011406277,-0.15213296,0.2151908,0.13312085,0.2671814
22:12:40.128;-0.0012762246,-0.52160317,7.990882,-0.40649056,0.074227214,-0.23903972,-26.21483,6.493895,8.12673,143.85646,0,0,0,0,0.0,0.0,0.0,0.0,1009.25,28.0,33.356064,9999999.0,33.356064,9999999.0,-3.3942943,-0.3311296,0.15289697,-3.7346718,0.009131283,-0.15660435,0.21600729,0.1304914,0.28614807
22:12:40.138;-0.0010209797,-0.52454275,7.986286,-0.40649056,0.074227214,-0.23903972,-26.215864,6.501516,8.1205845,143.84131,0,0,0,0,0.0,0.0,0.0,0.0,1009.29,28.0,33.020496,9999999.0,33.020496,9999999.0,-3.4155521,-0.33490285,0.14807498,-3.7578142,0.007309037,-0.16066925,0.21674956,0.128101,0.30130005
22:12:40.148;-8.1678375E-4,-0.5115715,7.9979324,-0.040279627,0.5014733,0.432347,-26.216692,6.470813,8.134068,143.90495,0,0,0,0,0.0,0.0,0.0,0.0,1009.29,28.0,33.020496,9999999.0,33.020496,9999999.0,-3.3273668,-0.32702994,0.10519011,-3.6598227,0.005839362,-0.16103177,0.22126283,0.12594965,0.23765564
22:12:40.158;-6.53427E-4,-0.5011946,8.00725,-0.040279627,0.5014733,0.432347,-26.217354,6.4462504,8.144855,143.9559,0,0,0,0,0.0,0.0,0.0,0.0,1009.29,28.0,33.020496,9999999.0,33.020496,9999999.0,-3.2562046,-0.32086903,0.09247324,-3.5816193,0.0046664565,-0.16147484,0.22677903,0.13070546,0.18670654
22:12:40.168;-5.227416E-4,-0.492893,8.014704,-0.040279627,0.5014733,0.432347,-26.217882,6.4266005,8.153483,143.99667,0,0,0,0,0.0,0.0,0.0,0.0,1009.29,28.0,33.020496,9999999.0,33.020496,9999999.0,-3.199387,-0.31608027,0.09336534,-3.5191777,0.0037299455,-0.16187763,0.23179376,0.13502893,0.14593506
22:12:40.178;-0.008079639,-0.4939132,8.028328,-0.28442025,0.379403,0.37131184,-26.218306,6.4108806,8.160387,144.0293,0,0,0,0,0.0,0.0,0.0,0.0,1009.19,28.0,33.855457,9999999.0,33.855457,9999999.0,-3.2003176,-0.26785457,0.10004722,-3.5204723,0.05755314,-0.16472183,0.23558779,0.1393524,0.11331177
22:12:40.190;-0.014125157,-0.49472934,8.0392275,-0.28442025,0.379403,0.37131184,-26.218645,6.3983045,8.16591,144.0554,0,0,0,0,0.0,0.0,0.0,0.0,1009.19,28.0,33.855457,9999999.0,33.855457,9999999.0,-3.1964788,-0.22876047,0.108873785,-3.5215023,0.10048017,-0.16813487,0.24014063,0.14380814,0.08720398
22:12:40.202;-0.018961571,-0.49538225,8.047947,-0.28442025,0.379403,0.37131184,-26.218916,6.3882437,8.170328,144.0763,0,0,0,0,0.0,0.0,0.0,0.0,1009.19,28.0,33.855457,9999999.0,33.855457,9999999.0,-3.1933079,-0.19761139,0.118124194,-3.522323,0.13473792,-0.1715479,0.24469347,0.14826389,0.0663147
22:12:40.210;-0.0075078113,-0.4959046,8.039599,-0.28442025,0.25733268,-0.30007488,-26.219133,6.380195,8.155462,144.093,0,0,0,0,0.0,0.0,0.0,0.0,1009.19,28.0,33.855457,9999999.0,33.855457,9999999.0,-3.1967075,-0.27140096,0.1263251,-3.5296876,0.053404372,-0.17382327,0.24675213,0.15123439,0.049606323
22:12:40.221;0.0016551968,-0.49632245,8.032922,-0.28442025,0.25733268,-0.30007488,-26.219307,6.3737564,8.14357,144.10637,0,0,0,0,0.0,0.0,0.0,0.0,1009.19,28.0,33.855457,9999999.0,33.855457,9999999.0,-3.2094793,-0.33126992,0.13044599,-3.535585,-0.011783419,-0.17695189,0.24958278,0.14793356,0.036239624
22:12:40.231;0.0013241575,-0.5043182,8.027579,-0.5285609,0.379403,0.24924153,-26.219446,6.368605,8.134056,144.11707,0,0,0,0,0.0,0.0,0.0,0.0,1009.19,28.0,33.855457,9999999.0,33.855457,9999999.0,-3.2689571,-0.3350055,0.13234119,-3.5947795,-0.009432402,-0.18223749,0.2533768,0.1449328,0.025543213
22:12:40.247;0.001059326,-0.51071477,8.023306,-0.5285609,0.379403,0.24924153,-26.219557,6.3644843,8.126445,144.12563,0,0,0,0,0.0,0.0,0.0,0.0,1009.19,28.0,33.855457,9999999.0,33.855457,9999999.0,-3.312314,-0.33741897,0.13635084,-3.6421864,-0.007549546,-0.19069447,0.25944725,0.14892067,0.016983032
22:12:40.254;8.474608E-4,-0.51583207,8.019887,-0.5285609,0.379403,0.24924153,-26.219645,6.3611875,8.120356,144.13248,0,0,0,0,0.0,0.0,0.0,0.0,1009.19,28.0,33.855457,9999999.0,33.855457,9999999.0,-3.3462422,-0.33979642,0.14008251,-3.6801448,-0.0060419557,-0.1943944,0.26210308,0.15066536,0.010131836
22:12:40.264;6.7796867E-4,-0.52758735,8.017152,-0.2233851,0.56250846,0.49338216,-26.182915,6.37695,8.133884,144.0815,0,0,0,0,0.0,0.0,0.0,0.0,1009.19,28.0,33.855457,9999999.0,33.855457,9999999.0,-3.4227288,-0.34611788,0.17198533,-3.7650535,-0.0048347474,-0.19640486,0.26716566,0.15290853,0.06111145
22:12:40.273;5.423749E-4,-0.53699154,8.014963,-0.2233851,0.56250846,0.49338216,-26.153532,6.3895597,8.144708,144.04063,0,0,0,0,0.0,0.0,0.0,0.0,1009.29,28.0,33.020496,9999999.0,33.020496,9999999.0,-3.4845443,-0.3513736,0.18534535,-3.8330102,-0.0038685494,-0.1986387,0.27279076,0.15784235,0.10197449
22:12:40.284;4.3389993E-4,-0.5445149,8.013212,-0.2233851,0.56250846,0.49338216,-26.130026,6.3996477,8.153366,144.00787,0,0,0,0,0.0,0.0,0.0,0.0,1009.29,28.0,33.020496,9999999.0,33.020496,9999999.0,-3.534016,-0.35562485,0.19044107,-3.8873947,-0.0030953174,-0.20087256,0.27841586,0.16277617,0.1347351
22:12:40.297;3.4711993E-4,-0.52754927,8.011812,-0.40649056,0.31836784,-0.11696941,-26.111221,6.407718,8.160293,143.98164,0,0,0,0,0.0,0.0,0.0,0.0,1009.29,28.0,33.020496,9999999.0,33.020496,9999999.0,-3.4266875,-0.34445235,0.19317722,-3.7672844,-0.002477034,-0.20656343,0.282873,0.16968352,0.16096497
22:12:40.305;2.7769594E-4,-0.51397675,8.010692,-0.40649056,0.31836784,-0.11696941,-26.096176,6.4141746,8.165834,143.96062,0,0,0,0,0.0,0.0,0.0,0.0,1009.29,28.0,33.020496,9999999.0,33.020496,9999999.0,-3.3387575,-0.33543682,0.19153428,-3.671142,-0.0019821206,-0.20940886,0.2851016,0.16886473,0.18199158
22:12:40.314;2.2215676E-4,-0.50311875,8.009795,-0.40649056,0.31836784,-0.11696941,-26.08414,6.4193397,8.170268,143.9438,0,0,0,0,0.0,0.0,0.0,0.0,1009.31,28.0,32.854034,9999999.0,32.854034,9999999.0,-3.2686841,-0.3280093,0.18808073,-3.5941942,-0.0015860092,-0.21306728,0.2879669,0.167812,0.19880676
22:12:40.323;-0.0074837203,-0.50975525,8.032063,-0.040279627,0.56250846,0.3102767,-26.111313,6.4050717,8.155415,143.98717,0,0,0,0,0.0,0.0,0.0,0.0,1009.31,28.0,32.854034,9999999.0,32.854034,9999999.0,-3.3011081,-0.281599,0.15567878,-3.6314077,0.05327704,-0.21347007,0.293592,0.16664231,0.15544128
22:12:40.334;-0.0136484215,-0.5150644,8.049876,-0.040279627,0.56250846,0.3102767,-26.13305,6.3936577,8.143532,144.0218,0,0,0,0,0.0,0.0,0.0,0.0,1009.31,28.0,32.854034,9999999.0,32.854034,9999999.0,-3.323127,-0.24444288,0.14554834,-3.6610255,0.096945636,-0.21391314,0.2997796,0.17005534,0.12080383
22:12:40.348;-0.018580183,-0.5193118,8.064127,-0.040279627,0.56250846,0.3102767,-26.15044,6.3845263,8.134026,144.04947,0,0,0,0,0.0,0.0,0.0,0.0,1009.31,28.0,32.854034,9999999.0,32.854034,9999999.0,-3.340661,-0.2147131,0.14614168,-3.6846228,0.13173945,-0.21447706,0.3076547,0.17439921,0.09313965
22:12:40.353;-0.014864147,-0.52270967,8.067866,-0.16234994,0.56250846,0.432347,-26.164352,6.377221,8.126421,144.0716,0,0,0,0,0.0,0.0,0.0,0.0,1009.29,28.0,33.020496,9999999.0,33.020496,9999999.0,-3.357811,-0.24069375,0.14998353,-3.7069538,0.10534013,-0.21528882,0.31046724,0.1759506,0.071014404
22:12:40.363;-0.011891318,-0.525428,8.070858,-0.16234994,0.56250846,0.432347,-26.175482,6.371377,8.120337,144.08928,0,0,0,0,0.0,0.0,0.0,0.0,1009.29,28.0,33.020496,9999999.0,33.020496,9999999.0,-3.3765538,-0.26127762,0.15628633,-3.7248025,0.08423919,-0.21691231,0.31609234,0.18027407,0.053329468
22:12:40.375;-0.009513054,-0.5276026,8.073252,-0.16234994,0.56250846,0.432347,-26.184385,6.3667016,8.115469,144.10341,0,0,0,0,0.0,0.0,0.0,0.0,1009.29,28.0,33.020496,9999999.0,33.020496,9999999.0,-3.3914697,-0.27789494,0.16359329,-3.7390704,0.067370296,-0.21869816,0.32227993,0.18502988,0.03919983
22:12:40.384;-0.007610443,-0.52934235,8.052182,-0.46752572,0.19629753,-0.23903972,-26.191507,6.3629613,8.111575,144.11472,0,0,0,0,0.0,0.0,0.0,0.0,1009.29,28.0,33.020496,9999999.0,33.020496,9999999.0,-3.4132483,-0.29251584,0.17060377,-3.7611535,0.054035906,-0.22290589,0.3240466,0.188921,0.027893066
22:12:40.394;-0.0060883546,-0.5307341,8.035326,-0.46752572,0.19629753,-0.23903972,-26.197206,6.359969,8.10846,144.12375,0,0,0,0,0.0,0.0,0.0,0.0,1009.29,28.0,33.020496,9999999.0,33.020496,9999999.0,-3.4307778,-0.30387518,0.17393106,-3.7789023,0.043318532,-0.22804867,0.32620588,0.18629156,0.018859863
22:12:40.405;-0.004870684,-0.53184754,8.021841,-0.46752572,0.19629753,-0.23903972,-26.201765,6.3575754,8.105968,144.13098,0,0,0,0,0.0,0.0,0.0,0.0,1009.19,28.0,33.855457,9999999.0,33.855457,9999999.0,-3.4447408,-0.3130169,0.17518026,-3.7931545,0.034712512,-0.23319145,0.32836515,0.18366212,0.011627197
22:12:40.413;-0.003896547,-0.53273827,8.018715,0.02075553,0.44043815,0.24924153,-26.205412,6.37406,8.103975,144.09877,0,0,0,0,0.0,0.0,0.0,0.0,1009.19,28.0,33.855457,9999999.0,33.855457,9999999.0,-3.4521542,-0.31986052,0.19457069,-3.8009658,0.027780585,-0.2330254,0.33188865,0.1817498,0.0438385
22:12:40.424;-0.0031172377,-0.53345084,8.016214,0.02075553,0.44043815,0.24924153,-26.20833,6.387248,8.102381,144.07303,0,0,0,0,0.0,0.0,0.0,0.0,1009.19,28.0,33.855457,9999999.0,33.855457,9999999.0,-3.4584599,-0.32535338,0.20240186,-3.8072188,0.022231242,-0.23279709,0.33673346,0.18449146,0.06958008
22:12:40.435;-0.0024937901,-0.5340209,8.014214,0.02075553,0.44043815,0.24924153,-26.210665,6.3977985,8.101105,144.05243,0,0,0,0,0.0,0.0,0.0,0.0,1009.19,28.0,33.855457,9999999.0,33.855457,9999999.0,-3.463514,-0.32985651,0.20511717,-3.8122241,0.01778933,-0.23256877,0.34157827,0.1872331,0.09017944
22:12:40.445;-0.0019950322,-0.5421384,8.012613,-0.10131478,0.013192058,0.37131184,-26.212532,6.406239,8.100084,144.03595,0,0,0,0,0.0,0.0,0.0,0.0,1009.25,28.0,33.356064,9999999.0,33.356064,9999999.0,-3.5167785,-0.33885467,0.20566109,-3.8707683,0.01423333,-0.23358192,0.3417102,0.18972552,0.106658936
22:12:40.456;-0.0015960258,-0.5486324,8.0113325,-0.10131478,0.013192058,0.37131184,-26.214025,6.412991,8.099268,144.02278,0,0,0,0,0.0,0.0,0.0,0.0,1009.25,28.0,33.356064,9999999.0,33.356064,9999999.0,-3.5598404,-0.34572178,0.20613402,-3.9176152,0.011387851,-0.23459506,0.34184214,0.19343863,0.11982727
22:12:40.466;-0.0012768207,-0.5538276,8.010308,-0.10131478,0.013192058,0.37131184,-26.21522,6.4183927,8.098615,144.01225,0,0,0,0,0.0,0.0,0.0,0.0,1009.25,28.0,33.356064,9999999.0,33.356064,9999999.0,-3.594273,-0.35121286,0.20709282,-3.9550993,0.009111036,-0.23570952,0.34198725,0.19752306,0.13035583
22:12:40.476;-0.0010214566,-0.52733797,8.001827,-0.28442025,0.31836784,0.005100906,-26.216175,6.404314,8.098092,144.04176,0,0,0,0,0.0,0.0,0.0,0.0,1009.25,28.0,33.356064,9999999.0,33.356064,9999999.0,-3.4288244,-0.33599573,0.18940926,-3.7704654,0.007298142,-0.23855372,0.34517094,0.20123617,0.10084534
22:12:40.487;-8.1716524E-4,-0.50614625,7.9950423,-0.28442025,0.31836784,0.005100906,-26.21694,6.393051,8.097673,144.06538,0,0,0,0,0.0,0.0,0.0,0.0,1009.29,28.0,33.020496,9999999.0,33.020496,9999999.0,-3.2940896,-0.32379875,0.18354046,-3.622419,0.005844444,-0.24168234,0.348673,0.20129228,0.07722473
22:12:40.497;-6.537322E-4,-0.4891929,7.9896145,-0.28442025,0.31836784,0.005100906,-26.217552,6.384041,8.097339,144.08427,0,0,0,0,0.0,0.0,0.0,0.0,1009.29,28.0,33.020496,9999999.0,33.020496,9999999.0,-3.186054,-0.31407565,0.18299669,-3.5037663,0.0046793353,-0.24452654,0.35185668,0.20134328,0.05833435
22:12:40.507;-0.008184431,-0.49095312,8.008257,-0.16234994,0.44043815,0.37131184,-26.218042,6.376833,8.097071,144.0994,0,0,0,0,0.0,0.0,0.0,0.0,1009.29,28.0,33.020496,9999999.0,33.020496,9999999.0,-3.1889272,-0.26585045,0.18463476,-3.508175,0.05844648,-0.24615003,0.35626107,0.20139429,0.04321289
22:12:40.517;-0.014208991,-0.49236128,8.02317,-0.16234994,0.44043815,0.37131184,-26.218433,6.3710666,8.096857,144.11148,0,0,0,0,0.0,0.0,0.0,0.0,1009.29,28.0,33.020496,9999999.0,33.020496,9999999.0,-3.1872637,-0.22713405,0.1888286,-3.511685,0.10127988,-0.24777353,0.36066547,0.2051074,0.03112793
22:12:40.527;-0.019028638,-0.4934878,8.035101,-0.16234994,0.44043815,0.37131184,-26.218746,6.366453,8.096685,144.12117,0,0,0,0,0.0,0.0,0.0,0.0,1009.29,28.0,33.020496,9999999.0,33.020496,9999999.0,-3.1859097,-0.19626194,0.19397989,-3.5144823,0.1354318,-0.24939702,0.36506987,0.20882052,0.021438599
22:12:40.537;-0.01522291,-0.50205046,8.021662,-0.2233851,0.44043815,0.12717122,-26.200598,6.3811626,8.114948,144.0817,0,0,0,0,0.0,0.0,0.0,0.0,1009.29,28.0,33.020496,9999999.0,33.020496,9999999.0,-3.243005,-0.22619282,0.222994,-3.581284,0.10851918,-0.25163087,0.36947426,0.21253364,0.060913086
22:12:40.548;-0.012178328,-0.5089006,8.01091,-0.2233851,0.44043815,0.12717122,-26.186079,6.39293,8.129559,144.0501,0,0,0,0,0.0,0.0,0.0,0.0,1009.29,28.0,33.020496,9999999.0,33.020496,9999999.0,-3.2942567,-0.2507071,0.23426373,-3.6348796,0.08692677,-0.2540881,0.37431908,0.21393251,0.09251404
22:12:40.559;-0.009742662,-0.5143807,8.002309,-0.2233851,0.44043815,0.12717122,-26.174463,6.402344,8.141247,144.02478,0,0,0,0,0.0,0.0,0.0,0.0,1009.29,28.0,33.020496,9999999.0,33.020496,9999999.0,-3.3353858,-0.27040255,0.23745471,-3.677855,0.069612846,-0.25654534,0.3791639,0.21533139,0.11782837
22:12:40.568;-0.0077941297,-0.49578047,7.9954276,-0.28442025,0.5014733,-0.11696941,-26.16517,6.4098754,8.150598,144.00453,0,0,0,0,0.0,0.0,0.0,0.0,1009.23,28.0,33.52253,9999999.0,33.52253,9999999.0,-3.220723,-0.27144942,0.23708953,-3.5482519,0.05574618,-0.25910512,0.38367715,0.21647593,0.13807678
22:12:40.579;-0.006235304,-0.4809003,7.9899225,-0.28442025,0.5014733,-0.11696941,-26.157736,6.4159,8.158078,143.98831,0,0,0,0,0.0,0.0,0.0,0.0,1009.23,28.0,33.52253,9999999.0,33.52253,9999999.0,-3.1274018,-0.2720192,0.23424944,-3.4443824,0.044632617,-0.26223373,0.38919336,0.21518926,0.15429688
22:12:40.590;-0.004988243,-0.46899614,7.9855185,-0.28442025,0.5014733,-0.11696941,-26.151789,6.42072,8.1640625,143.97534,0,0,0,0,0.0,0.0,0.0,0.0,1009.23,28.0,33.52253,9999999.0,33.52253,9999999.0,-3.052565,-0.27254888,0.230561,-3.3611672,0.035728876,-0.26536235,0.39470956,0.2139026,0.16726685
22:12:40.599;-0.0039905943,-0.48245716,8.00498,-0.2233851,0.31836784,0.432347,-26.147032,6.406176,8.15045,144.00299,0,0,0,0,0.0,0.0,0.0,0.0,1009.23,28.0,33.52253,9999999.0,33.52253,9999999.0,-3.1315765,-0.2872112,0.20788097,-3.4490228,0.028511008,-0.26737282,0.39757487,0.21284987,0.13961792
22:12:40.611;-0.0031924755,-0.49322596,8.020549,-0.2233851,0.31836784,0.432347,-26.143225,6.394541,8.13956,144.02512,0,0,0,0,0.0,0.0,0.0,0.0,1009.25,28.0,33.356064,9999999.0,33.356064,9999999.0,-3.196079,-0.2987393,0.20189688,-3.5189888,0.02276284,-0.27005345,0.4013953,0.21803804,0.117492676
22:12:40.620;-0.0025539803,-0.5095025,8.017681,-0.28442025,0.19629753,0.432347,-26.14018,6.385233,8.130848,144.04283,0,0,0,0,0.0,0.0,0.0,0.0,1009.25,28.0,33.356064,9999999.0,33.356064,9999999.0,-3.3026252,-0.31369284,0.20305529,-3.636106,0.018214459,-0.27261323,0.40316197,0.22192916,0.09977722
22:12:40.630;-0.0020431844,-0.52252364,8.015387,-0.28442025,0.19629753,0.432347,-26.137745,6.3777866,8.1238785,144.057,0,0,0,0,0.0,0.0,0.0,0.0,1009.25,28.0,33.356064,9999999.0,33.356064,9999999.0,-3.388508,-0.32553774,0.20756626,-3.7298384,0.014574204,-0.27545744,0.40512496,0.22625263,0.08560181
22:12:40.642;-0.0016345475,-0.53294057,8.013552,-0.28442025,0.19629753,0.432347,-26.135796,6.3718295,8.118303,144.06834,0,0,0,0,0.0,0.0,0.0,0.0,1009.25,28.0,33.356064,9999999.0,33.356064,9999999.0,-3.4572582,-0.33499536,0.21383488,-3.804848,0.011661028,-0.2788705,0.40748054,0.2314408,0.07426453
22:12:40.651;-0.001307638,-0.53361267,8.012083,-0.28442025,0.19629753,-0.11696941,-26.134237,6.3670635,8.113843,144.07742,0,0,0,0,0.0,0.0,0.0,0.0,1009.25,28.0,33.356064,9999999.0,33.356064,9999999.0,-3.463051,-0.337731,0.22004391,-3.8103285,0.009330473,-0.28143027,0.40924722,0.23533192,0.06518555
22:12:40.661;-0.0010461104,-0.53415036,8.010908,-0.28442025,0.19629753,-0.11696941,-26.13299,6.3632507,8.110274,144.08469,0,0,0,0,0.0,0.0,0.0,0.0,1009.25,28.0,33.356064,9999999.0,33.356064,9999999.0,-3.4673004,-0.33981484,0.22347148,-3.8147144,0.007465435,-0.2842745,0.4112102,0.23416223,0.057922363
22:12:40.675;-8.368883E-4,-0.5345805,8.009969,-0.28442025,0.19629753,-0.11696941,-26.131992,6.360201,8.10742,144.0905,0,0,0,0,0.0,0.0,0.0,0.0,1009.25,28.0,33.356064,9999999.0,33.356064,9999999.0,-3.4707527,-0.34144437,0.22514975,-3.8182237,0.005973024,-0.28797194,0.41376206,0.23264162,0.052108765
22:12:40.683;-6.695107E-4,-0.5349247,8.009217,-0.28442025,0.19629753,-0.11696941,-26.131193,6.357761,8.105136,144.09514,0,0,0,0,0.0,0.0,0.0,0.0,1009.25,28.0,33.356064,9999999.0,33.356064,9999999.0,-3.4733293,-0.34285527,0.22604999,-3.821032,0.004778852,-0.29053172,0.41552874,0.2315889,0.047470093
22:12:40.693;-5.3560856E-4,-0.52753854,8.0086155,-0.10131478,0.25733268,0.24924153,-26.148954,6.3558087,8.0849085,144.10812,0,0,0,0,0.0,0.0,0.0,0.0,1009.23,28.0,33.52253,9999999.0,33.52253,9999999.0,-3.426213,-0.33894846,0.22180048,-3.7687073,0.0038236007,-0.29144356,0.41784474,0.23053618,0.034484863
22:12:40.702;-4.2848685E-4,-0.52162963,8.008135,-0.10131478,0.25733268,0.24924153,-26.163164,6.354247,8.068727,144.1185,0,0,0,0,0.0,0.0,0.0,0.0,1009.23,28.0,33.52253,9999999.0,33.52253,9999999.0,-3.3881395,-0.33582908,0.22222655,-3.7268372,0.0030592105,-0.2923554,0.42016074,0.23302859,0.024108887
22:12:40.712;-3.4278948E-4,-0.5169025,8.00775,-0.10131478,0.25733268,0.24924153,-26.174532,6.352998,8.055781,144.12679,0,0,0,0,0.0,0.0,0.0,0.0,1009.23,28.0,33.52253,9999999.0,33.52253,9999999.0,-3.3576956,-0.3332837,0.22473101,-3.6933348,0.002447579,-0.29346985,0.4229914,0.235521,0.015823364
22:12:40.724;-0.007935677,-0.52078223,8.0074415,-0.28442025,0.5014733,0.37131184,-26.183626,6.3519983,8.045425,144.1334,0,0,0,0,0.0,0.0,0.0,0.0,1009.23,28.0,33.52253,9999999.0,33.52253,9999999.0,-3.3826485,-0.2867169,0.22818568,-3.7211192,0.056662552,-0.29659846,0.4285076,0.23826265,0.00920105
22:12:40.736;-0.014009987,-0.523886,8.007195,-0.28442025,0.5014733,0.37131184,-26.1909,6.3511987,8.03714,144.1387,0,0,0,0,0.0,0.0,0.0,0.0,1009.19,28.0,33.855457,9999999.0,33.855457,9999999.0,-3.3979661,-0.24926366,0.23243332,-3.7433445,0.10003499,-0.29944268,0.43352234,0.24197577,0.00390625
22:12:40.745;-0.0035465444,-0.52636904,8.006998,-0.40649056,-0.0478431,0.12717122,-26.19672,6.350559,8.048912,144.14294,0,0,0,0,0.0,0.0,0.0,0.0,1009.19,28.0,33.855457,9999999.0,33.855457,9999999.0,-3.4103937,-0.31830093,0.23712578,-3.7611337,0.025323393,-0.30391407,0.43299606,0.2460602,-3.3569336E-4
22:12:40.755;0.00482421,-0.5283555,8.006841,-0.40649056,-0.0478431,0.12717122,-26.201376,6.3500476,8.05833,144.14633,0,0,0,0,0.0,0.0,0.0,0.0,1009.19,28.0,33.855457,9999999.0,33.855457,9999999.0,-3.4300609,-0.3740557,0.24053511,-3.7753603,-0.034446422,-0.307979,0.43251765,0.2473319,-0.0037231445
22:12:40.773;0.011520814,-0.5299446,8.006715,-0.40649056,-0.0478431,0.12717122,-26.205101,6.349638,8.065864,144.14905,0,0,0,0,0.0,0.0,0.0,0.0,1009.19,28.0,33.855457,9999999.0,33.855457,9999999.0,-3.4462423,-0.41875142,0.2437836,-3.7867384,-0.08226251,-0.31570232,0.43160862,0.24974816,-0.006439209
22:12:40.778;0.016878096,-0.5312159,8.006614,-0.40649056,-0.0478431,0.12717122,-26.20808,6.3493104,8.071891,144.15121,0,0,0,0,0.0,0.0,0.0,0.0,1009.31,28.0,32.854034,9999999.0,32.854034,9999999.0,-3.4583337,-0.4543212,0.24600042,-3.7958393,-0.12051547,-0.31773478,0.4313694,0.250384,-0.008605957
22:12:40.788;-0.017143307,-0.50158715,8.006533,-0.5285609,0.13526237,0.3102767,-26.210464,6.3490486,8.076713,144.15294,0,0,0,0,0.0,0.0,0.0,0.0,1009.31,28.0,32.854034,9999999.0,32.854034,9999999.0,-3.272217,-0.2168909,0.24796596,-3.5847294,0.122439496,-0.3230204,0.43272203,0.25165573,-0.0103302
22:12:40.798;-0.04436043,-0.47788417,8.006468,-0.5285609,0.13526237,0.3102767,-26.212372,6.348839,8.08057,144.15433,0,0,0,0,0.0,0.0,0.0,0.0,1009.31,28.0,32.854034,9999999.0,32.854034,9999999.0,-3.0963688,-0.02430576,0.25066796,-3.4157236,0.3168843,-0.32830602,0.43407467,0.2547585,-0.01171875
22:12:40.811;-0.066134125,-0.4589218,8.006416,-0.5285609,0.13526237,0.3102767,-26.213898,6.348671,8.083656,144.15544,0,0,0,0,0.0,0.0,0.0,0.0,1009.31,28.0,32.854034,9999999.0,32.854034,9999999.0,-2.9555225,0.12986001,0.2541731,-3.2804499,0.47248495,-0.3351773,0.43583307,0.2587921,-0.012832642
22:12:40.820;-0.045245856,-0.48972055,8.037021,-0.10131478,0.74561393,0.7375228,-26.215118,6.293337,8.122925,144.27034,0,0,0,0,0.0,0.0,0.0,0.0,1009.23,28.0,33.52253,9999999.0,33.52253,9999999.0,-3.1252637,-0.022094578,0.2004295,-3.4868429,0.3219564,-0.33608913,0.4425436,0.26158458,-0.12773132
22:12:40.831;-0.02853524,-0.5143596,8.061504,-0.10131478,0.74561393,0.7375228,-26.216095,6.2490697,8.15434,144.36234,0,0,0,0,0.0,0.0,0.0,0.0,1009.23,28.0,33.52253,9999999.0,33.52253,9999999.0,-3.287998,-0.14582235,0.1890658,-3.6507523,0.20239699,-0.3372036,0.45074534,0.26969734,-0.21972656
22:12:40.841;1.5614554E-4,-0.54173225,8.081091,-0.28442025,0.13526237,-0.30007488,-26.216875,6.213656,8.179472,144.43597,0,0,0,0,0.0,0.0,0.0,0.0,1009.23,28.0,33.52253,9999999.0,33.52253,9999999.0,-3.4665465,-0.34751356,0.19624972,-3.8352,-0.001104609,-0.3400478,0.45209798,0.27707258,-0.29336548
22:12:40.852;0.023109253,-0.5636304,8.096761,-0.28442025,0.13526237,-0.30007488,-26.2175,6.1853247,8.199577,144.49492,0,0,0,0,0.0,0.0,0.0,0.0,1009.23,28.0,33.52253,9999999.0,33.52253,9999999.0,-3.6188862,-0.5085611,0.20553839,-3.9820247,-0.16313471,-0.34317642,0.45358586,0.27377176,-0.35231018
22:12:40.863;0.041471742,-0.5811489,8.109297,-0.28442025,0.13526237,-0.30007488,-26.218,6.1626596,8.215662,144.5421,0,0,0,0,0.0,0.0,0.0,0.0,1009.25,28.0,33.356064,9999999.0,33.356064,9999999.0,-3.7402813,-0.6369171,0.21441458,-4.099014,-0.29226416,-0.34630504,0.45507374,0.27047095,-0.39949036
22:12:40.872;0.025515947,-0.5568565,8.088679,-0.58959603,0.074227214,0.24924153,-26.2,6.1261277,8.173329,144.60905,0,0,0,0,0.0,0.0,0.0,0.0,1009.25,28.0,33.356064,9999999.0,33.356064,9999999.0,-3.6085734,-0.5230802,0.20776469,-3.9382334,-0.18031363,-0.3510218,0.45566756,0.26807034,-0.46644592
22:12:40.882;0.012751312,-0.53742254,8.0721855,-0.58959603,0.074227214,0.24924153,-26.1856,6.0969024,8.139463,144.6627,0,0,0,0,0.0,0.0,0.0,0.0,1009.25,28.0,33.356064,9999999.0,33.356064,9999999.0,-3.4810202,-0.42929745,0.2124634,-3.8089597,-0.09030788,-0.35750735,0.45648405,0.270812,-0.5200958
22:12:40.897;0.002539604,-0.5218754,8.0589905,-0.58959603,0.074227214,0.24924153,-26.17408,6.073522,8.1123705,144.7057,0,0,0,0,0.0,0.0,0.0,0.0,1009.25,28.0,33.356064,9999999.0,33.356064,9999999.0,-3.3784263,-0.35394722,0.22200736,-3.7051246,-0.018017696,-0.36635128,0.45759746,0.27455062,-0.5630951
22:12:40.905;0.009693129,-0.5094377,8.056096,0.02075553,0.25733268,0.432347,-26.164864,6.0548177,8.090696,144.74013,0,0,0,0,0.0,0.0,0.0,0.0,1009.31,28.0,32.854034,9999999.0,32.854034,9999999.0,-3.2918954,-0.39090464,0.23206404,-3.6183524,-0.06880107,-0.36618522,0.45965612,0.27654454,-0.5975189
22:12:40.916;0.015415949,-0.4994875,8.053781,0.02075553,0.25733268,0.432347,-26.157492,6.039854,8.073357,144.76768,0,0,0,0,0.0,0.0,0.0,0.0,1009.31,28.0,32.854034,9999999.0,32.854034,9999999.0,-3.2330556,-0.42153728,0.24290352,-3.5488756,-0.10946088,-0.3659569,0.46248677,0.28130037,-0.6250763
22:12:40.926;0.019994205,-0.49152735,8.051928,0.02075553,0.25733268,0.432347,-26.151594,6.0278835,8.059485,144.78976,0,0,0,0,0.0,0.0,0.0,0.0,1009.31,28.0,32.854034,9999999.0,32.854034,9999999.0,-3.1860642,-0.44615793,0.25322396,-3.493257,-0.14200981,-0.36574936,0.4650601,0.28562385,-0.64715576
22:12:40.936;0.015995365,-0.50048214,8.042784,-0.46752572,0.074227214,-0.60525066,-26.183676,6.0183067,8.066789,144.82503,0,0,0,0,0.0,0.0,0.0,0.0,1009.31,28.0,32.854034,9999999.0,32.854034,9999999.0,-3.2497792,-0.42725965,0.2539541,-3.5607734,-0.113728836,-0.37042463,0.4658024,0.28994733,-0.6824188
22:12:40.948;0.012796292,-0.50764596,8.035469,-0.46752572,0.074227214,-0.60525066,-26.209341,6.0106454,8.072631,144.8532,0,0,0,0,0.0,0.0,0.0,0.0,1009.25,28.0,33.356064,9999999.0,33.356064,9999999.0,-3.2966406,-0.4115369,0.254538,-3.6148894,-0.09106054,-0.3755674,0.4666189,0.28328958,-0.71058655
22:12:40.957;0.0102370335,-0.513377,8.029617,-0.46752572,0.074227214,-0.60525066,-26.229874,6.0045166,8.077305,144.87569,0,0,0,0,0.0,0.0,0.0,0.0,1009.25,28.0,33.356064,9999999.0,33.356064,9999999.0,-3.3340442,-0.39893845,0.25464183,-3.658248,-0.07289804,-0.38024268,0.46736118,0.2772371,-0.733078
22:12:40.967;0.008189627,-0.5103004,8.017275,-0.3454554,0.379403,0.24924153,-26.2463,5.9996133,8.081044,144.89365,0,0,0,0,0.0,0.0,0.0,0.0,1009.25,28.0,33.356064,9999999.0,33.356064,9999999.0,-3.31801,-0.38398996,0.25393343,-3.6419675,-0.05840928,-0.38369724,0.47115523,0.2711846,-0.7510376
22:12:40.982;0.0065517016,-0.5078391,8.0074005,-0.3454554,0.379403,0.24924153,-26.25944,5.995691,8.084036,144.90802,0,0,0,0,0.0,0.0,0.0,0.0,1009.25,28.0,33.356064,9999999.0,33.356064,9999999.0,-3.3048985,-0.37206584,0.2571168,-3.6289065,-0.04678573,-0.38853362,0.47646686,0.27467397,-0.7654114
22:12:40.991;0.0052413614,-0.50587004,7.999501,-0.3454554,0.379403,0.24924153,-26.26995,5.9925528,8.086429,144.9195,0,0,0,0,0.0,0.0,0.0,0.0,1009.25,28.0,33.356064,9999999.0,33.356064,9999999.0,-3.2941082,-0.36278874,0.26127964,-3.6184342,-0.037465982,-0.39164272,0.4798815,0.27691713,-0.776886
22:12:41.004;0.004193089,-0.5042948,7.9931817,-0.3454554,0.379403,0.24924153,-26.27836,5.990042,8.088343,144.92868,0,0,0,0,0.0,0.0,0.0,0.0,1009.25,28.0,33.356064,9999999.0,33.356064,9999999.0,-3.2857995,-0.35504588,0.2662502,-3.6100411,-0.02999676,-0.3964791,0.48519313,0.2804065,-0.7860718
22:12:41.009;-0.004306975,-0.4953732,7.988126,-0.10131478,0.13526237,0.79855794,-26.266687,6.043234,8.089874,144.81291,0,0,0,0,0.0,0.0,0.0,0.0,1009.38995,28.0,32.18554,9999999.0,32.18554,9999999.0,-3.2292757,-0.2951102,0.3318357,-3.5485783,0.030833054,-0.39698568,0.48586944,0.28165272,-0.67030334
22:12:41.033;-0.011107026,-0.4882359,7.9840813,-0.10131478,0.13526237,0.79855794,-26.257349,6.0857873,8.0911,144.7203,0,0,0,0,0.0,0.0,0.0,0.0,1009.38995,28.0,32.18554,9999999.0,32.18554,9999999.0,-3.1791627,-0.24598931,0.3626297,-3.499343,0.07955815,-0.39941722,0.48911574,0.30081812,-0.57769775
22:12:41.042;-0.00888562,-0.49784896,8.026814,-0.040279627,0.379403,0.6764876,-26.24988,6.1198297,8.09208,144.64622,0,0,0,0,0.0,0.0,0.0,0.0,1009.38995,28.0,32.18554,9999999.0,32.18554,9999999.0,-3.2188437,-0.26456904,0.37235814,-3.5491207,0.063304305,-0.39977974,0.49253038,0.30800512,-0.50361633
22:12:41.055;-0.007108496,-0.5055394,8.061001,-0.040279627,0.379403,0.6764876,-26.243904,6.1470637,8.092864,144.58696,0,0,0,0,0.0,0.0,0.0,0.0,1009.31,28.0,32.854034,9999999.0,32.854034,9999999.0,-3.2562044,-0.27981925,0.3735349,-3.5885592,0.05042651,-0.4002228,0.4967038,0.3154465,-0.4443512
22:12:41.085;-0.0056867967,-0.51169175,8.08835,-0.040279627,0.379403,0.6764876,-26.239122,6.168851,8.093492,144.53955,0,0,0,0,0.0,0.0,0.0,0.0,1009.31,28.0,32.854034,9999999.0,32.854034,9999999.0,-3.285991,-0.29120195,0.37901902,-3.619867,0.04020342,-0.40151176,0.5088447,0.3370941,-0.39694214
22:12:41.091;0.0031120083,-0.5089522,8.094907,-0.58959603,0.19629753,-0.72732097,-26.253698,6.149481,8.112393,144.58672,0,0,0,0,0.0,0.0,0.0,0.0,1009.23,28.0,33.52253,9999999.0,33.52253,9999999.0,-3.2673407,-0.34640133,0.33650357,-3.5976298,-0.021983398,-0.40504932,0.51002246,0.34115303,-0.44410706
22:12:41.100;0.04079683,-0.52974486,8.100152,-0.40649056,0.6235436,0.7375228,-26.265358,6.1339846,8.127515,144.6244,0,0,0,0,0.0,0.0,0.0,0.0,1009.23,28.0,33.52253,9999999.0,33.52253,9999999.0,-3.4025648,-0.59885526,0.31671074,-3.7417321,-0.28795555,-0.40870774,0.51563436,0.33460712,-0.48179626
22:12:41.115;0.07094469,-0.546379,8.104348,-0.40649056,0.6235436,0.7375228,-26.274687,6.1215878,8.139612,144.65456,0,0,0,0,0.0,0.0,0.0,0.0,1009.23,28.0,33.52253,9999999.0,33.52253,9999999.0,-3.5316005,-0.80259645,0.31611466,-3.8567836,-0.50041306,-0.41480508,0.5249875,0.34566996,-0.51194763
22:12:41.125;0.09506298,-0.55968636,8.107705,-0.40649056,0.6235436,0.7375228,-26.28215,6.11167,8.14929,144.67867,0,0,0,0,0.0,0.0,0.0,0.0,1009.23,28.0,33.52253,264.36737,36.166203,2.6436737,-3.6344316,-0.96597123,0.3225255,-3.9486735,-0.67016846,-0.4184635,0.53122294,0.3530452,-0.5360565
22:12:41.134;0.053066045,-0.5779937,8.087406,0.14282584,0.6235436,1.0426986,-26.25132,6.066936,8.138632,144.75647,0,0,0,0,0.0,0.0,0.0,0.0,1009.25,28.0,33.356064,264.36737,36.166203,2.6436737,-3.7754722,-0.7144754,0.30220193,-4.0877976,-0.3749882,-0.41703525,0.53683484,0.3596829,-0.6138611
22:12:41.143;0.019468497,-0.5926395,8.071167,0.14282584,0.6235436,1.0426986,-26.226656,6.031149,8.130106,144.81888,0,0,0,0,0.0,0.0,0.0,0.0,1009.25,28.0,33.356064,264.36737,36.166203,2.6436737,-3.8508635,-0.508574,0.3044303,-4.199494,-0.13783208,-0.41574982,0.54244673,0.36906716,-0.67626953
22:12:41.154;-0.007409537,-0.60435617,8.058176,0.14282584,0.6235436,1.0426986,-26.206924,6.002519,8.123285,144.86891,0,0,0,0,0.0,0.0,0.0,0.0,1009.25,28.0,33.356064,264.36737,36.166203,2.6436737,-3.9108915,-0.34312063,0.3174668,-4.2891016,0.052536223,-0.41417873,0.54930574,0.38053685,-0.7263031
22:12:41.163;-0.00592763,-0.59074515,8.024798,-0.40649056,0.31836784,-0.8493913,-26.19114,5.979615,8.117828,144.90901,0,0,0,0,0.0,0.0,0.0,0.0,1009.25,28.0,33.356064,264.36737,36.166203,2.6436737,-3.8238852,-0.3441147,0.3336439,-4.2102304,0.04220811,-0.41783714,0.55217105,0.38992113,-0.7664032
22:12:41.175;-0.0047421036,-0.57985634,7.9980965,-0.40649056,0.31836784,-0.8493913,-26.17851,5.9612923,8.113462,144.94113,0,0,0,0,0.0,0.0,0.0,0.0,1009.29,28.0,33.020496,264.36737,36.166203,2.6436737,-3.7668822,-0.3458124,0.3406263,-4.146648,0.033881966,-0.42271504,0.5559915,0.37972844,-0.79852295
22:12:41.184;-0.003793683,-0.5711453,7.976735,-0.40649056,0.31836784,-0.8493913,-26.16841,5.946634,8.10997,144.96686,0,0,0,0,0.0,0.0,0.0,0.0,1009.29,28.0,33.020496,9999999.0,33.020496,9999999.0,-3.7208679,-0.34733835,0.34349194,-4.0954676,0.027179912,-0.42637345,0.5588568,0.3720839,-0.82424927
22:12:41.208;-0.0030349463,-0.5335307,8.005614,-0.2233851,0.379403,0.12717122,-26.197128,5.953307,8.107176,144.96655,0,0,0,0,0.0,0.0,0.0,0.0,1009.29,28.0,33.020496,9999999.0,33.020496,9999999.0,-3.4668026,-0.3262641,0.3477478,-3.812814,0.02167288,-0.43173468,0.56796247,0.35169852,-0.8239441
22:12:41.213;-0.002427957,-0.503439,8.028718,-0.2233851,0.379403,0.12717122,-26.220102,5.958646,8.10494,144.96631,0,0,0,0,0.0,0.0,0.0,0.0,1009.23,28.0,33.52253,9999999.0,33.52253,9999999.0,-3.2619574,-0.3104425,0.35016316,-3.5880215,0.0172928,-0.4328516,0.5698595,0.35233438,-0.82369995
22:12:41.222;-0.0019423657,-0.51001143,8.047201,-0.10131478,0.44043815,1.3478744,-26.238482,5.962917,8.103152,144.96613,0,0,0,0,0.0,0.0,0.0,0.0,1009.23,28.0,33.52253,9999999.0,33.52253,9999999.0,-3.2949066,-0.31667256,0.3519126,-3.6264126,0.013801881,-0.43376344,0.57382345,0.3534789,-0.82351685
22:12:41.235;-0.0015538925,-0.5152694,8.061987,-0.10131478,0.44043815,1.3478744,-26.253185,5.9663334,8.101722,144.96596,0,0,0,0,0.0,0.0,0.0,0.0,1009.23,28.0,33.52253,9999999.0,33.52253,9999999.0,-3.3230858,-0.32186127,0.3608669,-3.6569967,0.01102088,-0.43497923,0.5791087,0.3696534,-0.823349
22:12:41.253;-0.001243114,-0.51947576,8.073816,-0.10131478,0.44043815,1.3478744,-26.264948,5.9690666,8.100577,144.96584,0,0,0,0,0.0,0.0,0.0,0.0,1009.23,28.0,33.52253,9999999.0,33.52253,9999999.0,-3.3456116,-0.32584518,0.37745208,-3.6813815,0.008803546,-0.4368029,0.5870366,0.39391515,-0.8232269
22:12:41.270;-9.944912E-4,-0.4998565,8.02965,-0.46752572,0.19629753,-0.8493913,-26.274359,5.9712534,8.099662,144.96574,0,0,0,0,0.0,0.0,0.0,0.0,1009.23,28.0,33.52253,9999999.0,33.52253,9999999.0,-3.2393544,-0.31720784,0.39786026,-3.5621426,0.0070825084,-0.44521835,0.59057,0.4181769,-0.8231354
22:12:41.284;-7.955929E-4,-0.4841611,7.994316,-0.46752572,0.19629753,-0.8493913,-26.281887,5.973003,8.098929,144.96565,0,0,0,0,0.0,0.0,0.0,0.0,1009.23,28.0,33.52253,9999999.0,33.52253,9999999.0,-3.151578,-0.30976048,0.40211862,-3.4657807,0.0056916373,-0.45176372,0.59331816,0.4062854,-0.8230438
22:12:41.306;-0.031282257,-0.4562819,7.996695,-0.3454554,0.25733268,-0.48318034,-26.26951,6.0112023,8.116744,144.88063,0,0,0,0,0.0,0.0,0.0,0.0,1009.25,28.0,33.356064,9999999.0,33.356064,9999999.0,-2.9708328,-0.09512402,0.4373697,-3.2656631,0.22377016,-0.45936373,0.5989795,0.3875988,-0.73802185
22:12:41.317;-0.055671588,-0.43397853,7.998598,-0.3454554,0.25733268,-0.48318034,-26.259607,6.041762,8.130996,144.81259,0,0,0,0,0.0,0.0,0.0,0.0,1009.25,28.0,33.356064,48.79565,34.010487,0.4879565,-2.804868,0.07814705,0.44408783,-3.105567,0.39819616,-0.4628183,0.6015528,0.38276702,-0.6699829
22:12:41.332;-0.021552935,-0.4927503,8.0307665,-0.10131478,0.19629753,0.7375228,-26.233286,6.0478096,8.105597,144.78749,0,0,0,0,0.0,0.0,0.0,0.0,1009.25,28.0,33.356064,48.79565,34.010487,0.4879565,-3.1523638,-0.17678927,0.42211235,-3.5111294,0.15348116,-0.46443933,0.60469353,0.37503615,-0.6448822
22:12:41.364;0.0057419874,-0.5397677,8.056501,-0.10131478,0.19629753,0.7375228,-26.212229,6.0526476,8.085278,144.76736,0,0,0,0,0.0,0.0,0.0,0.0,1009.31,28.0,32.854034,48.79565,34.010487,0.4879565,-3.4676676,-0.3828084,0.42043778,-3.8329606,-0.040744197,-0.4676814,0.610975,0.39863688,-0.62475586
22:12:41.379;0.00459359,-0.56205875,8.0694275,-0.16234994,0.13526237,0.9816634,-26.195383,6.056518,8.069022,144.75125,0,0,0,0,0.0,0.0,0.0,0.0,1009.31,28.0,32.854034,48.79565,34.010487,0.4879565,-3.624466,-0.39152727,0.4231254,-3.9843795,-0.03253727,-0.47011665,0.61300397,0.4096997,-0.6086426
22:12:41.387;-0.0039865733,-0.5722301,8.095091,-0.3454554,0.379403,-0.72732097,-26.181906,6.0596147,8.056018,144.73836,0,0,0,0,0.0,0.0,0.0,0.0,1009.31,28.0,32.854034,9999999.0,32.854034,9999999.0,-3.6784801,-0.34225094,0.42629522,-4.0434284,0.028146103,-0.47253484,0.6156598,0.41657135,-0.5957489
22:12:41.397;-0.010850703,-0.5803672,8.115622,-0.3454554,0.379403,-0.72732097,-26.171125,6.062092,8.045614,144.72803,0,0,0,0,0.0,0.0,0.0,0.0,1009.31,28.0,32.854034,9999999.0,32.854034,9999999.0,-3.7159553,-0.30240908,0.42259812,-4.0903893,0.07641011,-0.47633484,0.61983323,0.40857083,-0.5854187
22:12:41.408;-0.016342008,-0.58687687,8.132047,-0.3454554,0.379403,-0.72732097,-26.1625,6.0640736,8.037292,144.71976,0,0,0,0,0.0,0.0,0.0,0.0,1009.31,28.0,32.854034,9999999.0,32.854034,9999999.0,-3.745623,-0.27078745,0.41571933,-4.1277804,0.11484169,-0.48013484,0.6240067,0.4005703,-0.57714844
22:12:41.415;-0.03605794,-0.5844232,8.114541,-0.2233851,0.44043815,0.18820637,-26.1556,6.047259,8.049033,144.75139,0,0,0,0,0.0,0.0,0.0,0.0,1009.29,28.0,33.020496,9999999.0,33.020496,9999999.0,-3.7346833,-0.1446129,0.38978344,-4.119387,0.25394127,-0.48169854,0.62708974,0.39547905,-0.6087799
22:12:41.428;-0.05183069,-0.5824602,8.100536,-0.2233851,0.44043815,0.18820637,-26.15008,6.0338073,8.058427,144.7767,0,0,0,0,0.0,0.0,0.0,0.0,1009.29,28.0,33.020496,9999999.0,33.020496,9999999.0,-3.7161171,-0.041950703,0.38119742,-4.1126285,0.36565384,-0.48460254,0.6328154,0.39792573,-0.63409424
22:12:41.435;-0.06444889,-0.5808899,8.089333,-0.2233851,0.44043815,0.18820637,-26.145664,6.023046,8.065942,144.79698,0,0,0,0,0.0,0.0,0.0,0.0,1009.29,28.0,33.020496,9999999.0,33.020496,9999999.0,-3.700826,0.03999731,0.38008082,-4.107194,0.45530182,-0.48616624,0.6358985,0.39924318,-0.65437317
22:12:41.448;-0.05922056,-0.6102794,8.065046,-0.040279627,0.31836784,0.92062825,-26.142132,6.0144367,8.071954,144.8132,0,0,0,0,0.0,0.0,0.0,0.0,1009.29,28.0,33.020496,9999999.0,33.020496,9999999.0,-3.8905237,-0.011080921,0.3827753,-4.32719,0.41950843,-0.48668987,0.64003724,0.40168986,-0.67059326
22:12:41.463;-0.055037893,-0.63379097,8.045618,-0.040279627,0.31836784,0.92062825,-26.139305,6.0075493,8.076763,144.82619,0,0,0,0,0.0,0.0,0.0,0.0,1009.31,28.0,32.854034,9999999.0,32.854034,9999999.0,-4.054814,-0.053348303,0.39264467,-4.5040503,0.39072838,-0.48729405,0.64481276,0.41549927,-0.6835785
22:12:41.469;-0.05169176,-0.6526002,8.030075,-0.040279627,0.31836784,0.92062825,-26.137045,6.0020394,8.08061,144.83658,0,0,0,0,0.0,0.0,0.0,0.0,1009.31,28.0,32.854034,9999999.0,32.854034,9999999.0,-4.1868424,-0.08764303,0.40163824,-4.646093,0.36761135,-0.48753572,0.646723,0.42102304,-0.6939697
22:12:41.480;-0.0566763,-0.61401755,8.040625,-0.28442025,0.31836784,-0.17800456,-26.172035,6.0160317,8.083689,144.8242,0,0,0,0,0.0,0.0,0.0,0.0,1009.31,28.0,32.854034,9999999.0,32.854034,9999999.0,-3.9391744,-0.031151503,0.42258155,-4.366775,0.40268415,-0.49066433,0.65022504,0.43114996,-0.68159485
22:12:41.489;-0.06066393,-0.5831514,8.049065,-0.28442025,0.31836784,-0.17800456,-26.200027,6.0272255,8.086151,144.81432,0,0,0,0,0.0,0.0,0.0,0.0,1009.31,28.0,32.854034,9999999.0,32.854034,9999999.0,-3.732671,0.014606804,0.43109757,-4.143698,0.430688,-0.49293968,0.652772,0.42972592,-0.67170715
22:12:41.501;-0.06385404,-0.55845845,8.055817,-0.28442025,0.31836784,-0.17800456,-26.222422,6.0361805,8.088121,144.80641,0,0,0,0,0.0,0.0,0.0,0.0,1009.29,28.0,33.020496,9999999.0,33.020496,9999999.0,-3.567815,0.051350385,0.43329573,-3.9654827,0.4530554,-0.49635273,0.6565924,0.42758986,-0.6638031
22:12:41.508;-0.06640612,-0.5387041,8.061218,-0.28442025,0.31836784,-0.17800456,-26.240337,6.0433445,8.089697,144.80011,0,0,0,0,0.0,0.0,0.0,0.0,1009.29,28.0,33.020496,264.36737,36.166203,2.6436737,-3.4358559,0.08050254,0.4328817,-3.8230705,0.47092605,-0.49862808,0.6591394,0.42616582,-0.6575012
22:12:41.517;-0.053124897,-0.53056204,8.0119095,-0.2233851,0.31836784,-0.48318034,-26.25467,6.0490756,8.090958,144.79507,0,0,0,0,0.0,0.0,0.0,0.0,1009.29,28.0,33.020496,264.36737,36.166203,2.6436737,-3.4018974,0.0012666583,0.43124044,-3.7886076,0.37907764,-0.50063854,0.6620047,0.42456377,-0.6524658
22:12:41.531;-0.04249992,-0.52404845,7.9724627,-0.2233851,0.31836784,-0.48318034,-26.266136,6.0536604,8.091967,144.79106,0,0,0,0,0.0,0.0,0.0,0.0,1009.29,28.0,33.020496,264.36737,36.166203,2.6436737,-3.3848348,-0.06374115,0.42652637,-3.760721,0.30477402,-0.50376594,0.6664619,0.41779923,-0.64845276
22:12:41.537;-0.033999935,-0.5188376,7.940905,-0.2233851,0.31836784,-0.48318034,-26.275309,6.057328,8.092773,144.78784,0,0,0,0,0.0,0.0,0.0,0.0,1009.23,28.0,33.52253,264.36737,36.166203,2.6436737,-3.3708932,-0.11658256,0.42232305,-3.738206,0.24479528,-0.5051063,0.6683721,0.41490015,-0.64523315
22:12:41.552;-0.027199948,-0.52999175,7.9769506,-0.10131478,0.25733268,0.12717122,-26.282646,6.0786624,8.093419,144.74718,0,0,0,0,0.0,0.0,0.0,0.0,1009.23,28.0,33.52253,264.36737,36.166203,2.6436737,-3.432831,-0.16747898,0.43556166,-3.8011456,0.19493763,-0.5065247,0.6719748,0.40813562,-0.6045685
22:12:41.565;-0.021759959,-0.5389151,8.005787,-0.10131478,0.25733268,0.12717122,-26.288517,6.09573,8.093935,144.71469,0,0,0,0,0.0,0.0,0.0,0.0,1009.23,28.0,33.52253,264.36737,36.166203,2.6436737,-3.4828627,-0.2080844,0.43898183,-3.8510811,0.15537955,-0.5079431,0.67557746,0.409916,-0.5720825
22:12:41.569;-0.017407967,-0.5537152,7.99821,-0.5285609,0.379403,0.9816634,-26.293213,6.109384,8.094348,144.6887,0,0,0,0,0.0,0.0,0.0,0.0,1009.23,28.0,33.52253,264.36737,36.166203,2.6436737,-3.585247,-0.24640816,0.43769613,-3.9602525,0.12440532,-0.51005733,0.67709506,0.4104247,-0.5460968
22:12:41.581;-0.013926374,-0.56555533,7.9921484,-0.5285609,0.379403,0.9816634,-26.29697,6.1203074,8.094679,144.66794,0,0,0,0,0.0,0.0,0.0,0.0,1009.23,28.0,33.52253,264.36737,36.166203,2.6436737,-3.668168,-0.27676922,0.43984318,-4.0477176,0.099589154,-0.5158715,0.6812685,0.421223,-0.5253296
22:12:41.596;-0.011141099,-0.5750274,7.9872994,-0.5285609,0.379403,0.9816634,-26.299976,6.129046,8.094943,144.65132,0,0,0,0,0.0,0.0,0.0,0.0,1009.23,28.0,33.52253,264.36737,36.166203,2.6436737,-3.7345161,-0.3011031,0.44669482,-4.1177707,0.07971276,-0.5243285,0.68733895,0.43692964,-0.50871277
22:12:41.603;-0.008912879,-0.56728214,7.9757586,-0.5285609,0.379403,-0.60525066,-26.265581,6.1544366,8.095155,144.58221,0,0,0,0,0.0,0.0,0.0,0.0,1009.23,28.0,33.52253,264.36737,36.166203,2.6436737,-3.691999,-0.31145453,0.4798016,-4.068354,0.063866444,-0.52802837,0.68999475,0.44380128,-0.4396057
22:12:41.612;-0.0071303034,-0.56108594,7.966526,-0.5285609,0.379403,-0.60525066,-26.238066,6.1747494,8.095324,144.52684,0,0,0,0,0.0,0.0,0.0,0.0,1009.23,28.0,33.52253,264.36737,36.166203,2.6436737,-3.6574626,-0.31936544,0.48676488,-4.0287127,0.051154878,-0.5327854,0.6934094,0.43835402,-0.38423157
22:12:41.626;-0.0057042427,-0.556129,7.95914,-0.5285609,0.379403,-0.60525066,-26.216053,6.1909995,8.095459,144.48247,0,0,0,0,0.0,0.0,0.0,0.0,1009.23,28.0,33.52253,9999999.0,33.52253,9999999.0,-3.6298614,-0.32562578,0.4808116,-3.9969308,0.04096348,-0.5396567,0.6983416,0.43048576,-0.339859
22:12:41.634;-0.004563394,-0.5598249,7.9762154,-0.2233851,0.379403,0.79855794,-26.198442,6.2039995,8.095568,144.44693,0,0,0,0,0.0,0.0,0.0,0.0,1009.29,28.0,33.020496,9999999.0,33.020496,9999999.0,-3.646103,-0.33483893,0.4706939,-4.0148215,0.032699913,-0.54166716,0.70175624,0.4250385,-0.3043213
22:12:41.645;-0.003650715,-0.5627816,7.989876,-0.2233851,0.379403,0.79855794,-26.184355,6.2144,8.0956545,144.41847,0,0,0,0,0.0,0.0,0.0,0.0,1009.29,28.0,33.020496,9999999.0,33.020496,9999999.0,-3.6599002,-0.3420694,0.46648708,-4.0290785,0.026114749,-0.5441244,0.7059297,0.43382263,-0.27586365
22:12:41.662;-0.0029205722,-0.5651469,8.000804,-0.2233851,0.379403,0.79855794,-26.173084,6.2227197,8.095724,144.39569,0,0,0,0,0.0,0.0,0.0,0.0,1009.29,28.0,33.020496,9999999.0,33.020496,9999999.0,-3.670968,-0.34771308,0.467934,-4.0404487,0.020862972,-0.54769856,0.71200013,0.44659957,-0.25308228
22:12:41.673;-0.0023364578,-0.5670392,8.001885,0.02075553,0.5014733,0.432347,-26.145668,6.229376,8.077379,144.36836,0,0,0,0,0.0,0.0,0.0,0.0,1009.29,28.0,33.020496,9999999.0,33.020496,9999999.0,-3.682796,-0.3527089,0.4753231,-4.053386,0.016687855,-0.5474703,0.71751636,0.45538372,-0.22575378
22:12:41.675;-0.0018691663,-0.56855303,8.00275,0.02075553,0.5014733,0.432347,-26.123734,6.2347007,8.062703,144.34647,0,0,0,0,0.0,0.0,0.0,0.0,1009.29,28.0,33.020496,9999999.0,33.020496,9999999.0,-3.6926248,-0.35709825,0.4769501,-4.0637336,0.013348671,-0.547408,0.7190208,0.45668074,-0.20385742
22:12:41.687;-0.001495333,-0.5697641,8.003443,0.02075553,0.5014733,0.432347,-26.106186,6.2389607,8.050962,144.32893,0,0,0,0,0.0,0.0,0.0,0.0,1009.25,28.0,33.356064,9999999.0,33.356064,9999999.0,-3.7004955,-0.3598878,0.4779595,-4.0720096,0.010677904,-0.5471797,0.724537,0.46143657,-0.18632507
22:12:41.697;-0.008857712,-0.55541,8.01932,-0.46752572,0.379403,-0.4221452,-26.092148,6.2423687,8.04157,144.31488,0,0,0,0,0.0,0.0,0.0,0.0,1009.25,28.0,33.356064,9999999.0,33.356064,9999999.0,-3.60223,-0.30298454,0.4791026,-3.961919,0.06313459,-0.5523225,0.7287105,0.4661924,-0.17227173
22:12:41.707;-0.014747616,-0.54392684,8.032021,-0.46752572,0.379403,-0.4221452,-26.080917,6.245095,8.034056,144.30363,0,0,0,0,0.0,0.0,0.0,0.0,1009.25,28.0,33.356064,9999999.0,33.356064,9999999.0,-3.5174894,-0.25690517,0.47615963,-3.8741372,0.10496043,-0.5569978,0.7325045,0.46197096,-0.161026
22:12:41.718;-0.019459538,-0.53474027,8.042181,-0.46752572,0.379403,-0.4221452,-26.071934,6.247276,8.028045,144.29463,0,0,0,0,0.0,0.0,0.0,0.0,1009.25,28.0,33.356064,9999999.0,33.356064,9999999.0,-3.4498923,-0.22007313,0.47124484,-3.8040972,0.13833196,-0.5621406,0.73667794,0.45732737,-0.15202332
22:12:41.728;-0.023229076,-0.51972955,8.012003,-0.2233851,0.44043815,0.61545247,-26.083147,6.2490206,8.023235,144.29659,0,0,0,0,0.0,0.0,0.0,0.0,1009.29,28.0,33.020496,9999999.0,33.020496,9999999.0,-3.3625553,-0.18666805,0.46140987,-3.7114966,0.1657679,-0.56415105,0.7406419,0.45352805,-0.15397644
22:12:41.739;-0.026244706,-0.507721,7.98786,-0.2233851,0.44043815,0.61545247,-26.092117,6.2504163,8.019388,144.29816,0,0,0,0,0.0,0.0,0.0,0.0,1009.29,28.0,33.020496,9999999.0,33.020496,9999999.0,-3.292143,-0.15960304,0.46037585,-3.636898,0.18786973,-0.56683165,0.74592716,0.46091348,-0.1555481
22:12:41.748;-0.02865721,-0.49811414,7.968546,-0.2233851,0.44043815,0.61545247,-26.099295,6.251533,8.016311,144.29941,0,0,0,0,0.0,0.0,0.0,0.0,1009.29,28.0,33.020496,9999999.0,33.020496,9999999.0,-3.2353575,-0.13805437,0.46278858,-3.5768845,0.20565,-0.5688421,0.7498911,0.46645254,-0.15679932
22:12:41.758;-0.015264322,-0.5210744,7.999063,-0.16234994,0.6845788,0.37131184,-26.105036,6.2524266,8.013848,144.3004,0,0,0,0,0.0,0.0,0.0,0.0,1009.29,28.0,33.020496,9999999.0,33.020496,9999999.0,-3.368344,-0.23795617,0.46720192,-3.7270849,0.10910408,-0.5704656,0.7567369,0.47260708,-0.15779114
22:12:41.793;-0.004550012,-0.53944266,8.023477,-0.16234994,0.6845788,0.37131184,-26.109629,6.2531414,8.011879,144.30121,0,0,0,0,0.0,0.0,0.0,0.0,1009.25,28.0,33.356064,9999999.0,33.356064,9999999.0,-3.4861054,-0.31703782,0.4759981,-3.8463798,0.03241852,-0.57614785,0.7806971,0.485603,-0.15859985
22:12:41.798;-0.0036400096,-0.53881437,8.027685,-0.3454554,0.25733268,-0.30007488,-26.131702,6.253713,8.047103,144.31097,0,0,0,0,0.0,0.0,0.0,0.0,1009.25,28.0,33.356064,9999999.0,33.356064,9999999.0,-3.4877913,-0.32532117,0.47684604,-3.8399053,0.025921417,-0.57787514,0.7819838,0.48745957,-0.16836548
22:12:41.809;-0.0029120077,-0.5383117,8.031052,-0.3454554,0.25733268,-0.30007488,-26.149363,6.2541704,8.075282,144.31879,0,0,0,0,0.0,0.0,0.0,0.0,1009.31,28.0,32.854034,9999999.0,32.854034,9999999.0,-3.4841697,-0.32947817,0.47659615,-3.8347309,0.020728568,-0.5816752,0.7848145,0.48415875,-0.17617798
22:12:41.825;-0.009991052,-0.53024817,8.018422,-0.16234994,0.31836784,0.3102767,-26.16349,6.254536,8.097826,144.32503,0,0,0,0,0.0,0.0,0.0,0.0,1009.31,28.0,32.854034,9999999.0,32.854034,9999999.0,-3.4382553,-0.27920413,0.47485644,-3.7833865,0.07123561,-0.58427274,0.78990835,0.47935757,-0.18241882
22:12:41.833;-0.015654286,-0.52379733,8.008318,-0.16234994,0.31836784,0.3102767,-26.174791,6.254829,8.115861,144.33002,0,0,0,0,0.0,0.0,0.0,0.0,1009.31,28.0,32.854034,9999999.0,32.854034,9999999.0,-3.3960195,-0.2387631,0.4758533,-3.7421882,0.11176018,-0.5855715,0.7924553,0.48183978,-0.18740845
22:12:41.841;-0.020184875,-0.51863664,8.000235,-0.16234994,0.31836784,0.3102767,-26.183832,6.255063,8.130289,144.33401,0,0,0,0,0.0,0.0,0.0,0.0,1009.31,28.0,32.854034,9999999.0,32.854034,9999999.0,-3.3622413,-0.20613888,0.47808874,-3.7091503,0.14425616,-0.5868703,0.7950023,0.48432198,-0.19140625
22:12:41.851;-0.0161479,-0.529831,8.009091,-0.3454554,0.5014733,0.61545247,-26.191065,6.2736506,8.105031,144.29912,0,0,0,0,0.0,0.0,0.0,0.0,1009.31,28.0,32.854034,9999999.0,32.854034,9999999.0,-3.4272838,-0.23848623,0.50020516,-3.784805,0.11526743,-0.5903249,0.800017,0.48742476,-0.1565094
22:12:41.861;-0.0129183205,-0.5387865,8.016176,-0.3454554,0.5014733,0.61545247,-26.196852,6.288521,8.084825,144.27124,0,0,0,0,0.0,0.0,0.0,0.0,1009.25,28.0,33.356064,9999999.0,33.356064,9999999.0,-3.4848728,-0.2650724,0.5108311,-3.8451989,0.09212602,-0.59377944,0.8050317,0.4935793,-0.12863159
22:12:41.874;-0.010334657,-0.54595083,8.021845,-0.3454554,0.5014733,0.61545247,-26.20148,6.300417,8.06866,144.24893,0,0,0,0,0.0,0.0,0.0,0.0,1009.25,28.0,33.356064,9999999.0,33.356064,9999999.0,-3.531043,-0.2861723,0.51735985,-3.8934298,0.07364456,-0.59827036,0.81155086,0.5015802,-0.10632324
22:12:41.883;-0.008267725,-0.55168235,8.02638,-0.3454554,0.5014733,0.61545247,-26.205185,6.3099337,8.055728,144.23111,0,0,0,0,0.0,0.0,0.0,0.0,1009.25,28.0,33.356064,9999999.0,33.356064,9999999.0,-3.5676935,-0.30332634,0.5211507,-3.9319618,0.058879666,-0.60137945,0.8160641,0.50711924,-0.08850098
22:12:41.893;-0.00661418,-0.5486061,8.04533,-0.16234994,0.56250846,0.432347,-26.208147,6.317547,8.0453825,144.21686,0,0,0,0,0.0,0.0,0.0,0.0,1009.25,28.0,33.356064,264.36737,36.166203,2.6436737,-3.5413265,-0.3112751,0.5243381,-3.900924,0.04699453,-0.60300297,0.8216892,0.5132738,-0.07424927
22:12:41.907;-0.0052913437,-0.54614514,8.060491,-0.16234994,0.56250846,0.432347,-26.210518,6.3236375,8.037106,144.20544,0,0,0,0,0.0,0.0,0.0,0.0,1009.29,28.0,33.020496,264.36737,36.166203,2.6436737,-3.5199323,-0.31743228,0.52753913,-3.876197,0.037526015,-0.60527587,0.82956433,0.5193266,-0.06283569
22:12:41.914;-0.004233075,-0.54417634,8.0726185,-0.16234994,0.56250846,0.432347,-26.212414,6.3285103,8.030484,144.19633,0,0,0,0,0.0,0.0,0.0,0.0,1009.29,28.0,33.020496,264.36737,36.166203,2.6436737,-3.50269,-0.3228965,0.52950084,-3.8564816,0.029976409,-0.6064123,0.8335019,0.52235305,-0.053726196
22:12:41.925;-0.0033864598,-0.51961696,8.051676,-0.16234994,0.6235436,-0.23903972,-26.21393,6.3324084,8.043588,144.18904,0,0,0,0,0.0,0.0,0.0,0.0,1009.29,28.0,33.020496,264.36737,36.166203,2.6436737,-3.3556976,-0.31324062,0.53195167,-3.692477,0.024048043,-0.60819817,0.8403609,0.52710885,-0.046432495
22:12:41.937;-0.0027091678,-0.49996948,8.034922,-0.16234994,0.6235436,-0.23903972,-26.215143,6.335527,8.05407,144.1832,0,0,0,0,0.0,0.0,0.0,0.0,1009.29,28.0,33.020496,264.36737,36.166203,2.6436737,-3.2360713,-0.30550566,0.5310181,-3.5606139,0.019281363,-0.61014634,0.8478434,0.5242404,-0.04058838
22:12:41.947;0.005494111,-0.5072358,8.03684,-0.10131478,0.31836784,0.37131184,-26.216114,6.3380218,8.062456,144.17853,0,0,0,0,0.0,0.0,0.0,0.0,1009.31,28.0,32.854034,264.36737,36.166203,2.6436737,-3.2808707,-0.362982,0.5288881,-3.6113656,-0.039090518,-0.6110582,0.8507087,0.522089,-0.03591919
22:12:41.957;0.012056734,-0.5130489,8.038376,-0.10131478,0.31836784,0.37131184,-26.21689,6.3400173,8.069165,144.1748,0,0,0,0,0.0,0.0,0.0,0.0,1009.31,28.0,32.854034,9999999.0,32.854034,9999999.0,-3.3231475,-0.40918326,0.5292067,-3.6519423,-0.085763186,-0.61207134,0.8538924,0.52580214,-0.032196045
22:12:41.967;0.017306833,-0.51769936,8.039604,-0.10131478,0.31836784,0.37131184,-26.217512,6.341614,8.0745325,144.17181,0,0,0,0,0.0,0.0,0.0,0.0,1009.31,28.0,32.854034,9999999.0,32.854034,9999999.0,-3.3569791,-0.44612452,0.531042,-3.6843884,-0.12308534,-0.6131858,0.85739446,0.52988654,-0.029205322
22:12:41.977;0.021506911,-0.5214197,8.048248,-0.16234994,0.379403,0.5544173,-26.19961,6.342891,8.078826,144.16023,0,0,0,0,0.0,0.0,0.0,0.0,1009.31,28.0,32.854034,9999999.0,32.854034,9999999.0,-3.38089,-0.47525656,0.53792584,-3.7068126,-0.15278782,-0.614647,0.8608091,0.53322834,-0.017623901
22:12:41.987;0.024866974,-0.524396,8.055163,-0.16234994,0.379403,0.5544173,-26.185287,6.343913,8.082261,144.15096,0,0,0,0,0.0,0.0,0.0,0.0,1009.29,28.0,33.020496,9999999.0,33.020496,9999999.0,-3.3999324,-0.49846634,0.5429878,-3.7247162,-0.17650276,-0.6162705,0.8646031,0.5387725,-0.008346558
22:12:41.998;0.027555024,-0.526777,8.060696,-0.16234994,0.379403,0.5544173,-26.17383,6.3447304,8.085009,144.14352,0,0,0,0,0.0,0.0,0.0,0.0,1009.29,28.0,33.020496,9999999.0,33.020496,9999999.0,-3.4151554,-0.51696044,0.5479222,-3.7390156,-0.19544466,-0.61821866,0.86915594,0.54542553,-9.1552734E-4
22:12:42.007;0.02204402,-0.51335895,8.049799,-0.2233851,0.13526237,-0.36111003,-26.164663,6.3453846,8.087207,144.13757,0,0,0,0,0.0,0.0,0.0,0.0,1009.29,28.0,33.020496,9999999.0,33.020496,9999999.0,-3.3359632,-0.47439975,0.55214417,-3.6489625,-0.15658349,-0.6202291,0.8703733,0.5504153,0.0050354004
22:12:42.017;0.017635215,-0.5026245,8.041081,-0.2233851,0.13526237,-0.36111003,-26.157331,6.3459077,8.088965,144.13281,0,0,0,0,0.0,0.0,0.0,0.0,1009.29,28.0,33.020496,9999999.0,33.020496,9999999.0,-3.26672,-0.43940815,0.55185455,-3.5767298,-0.12541269,-0.622463,0.8717259,0.5468042,0.009796143
22:12:42.029;0.014108172,-0.49403694,8.034107,-0.2233851,0.13526237,-0.36111003,-26.151464,6.3463264,8.090372,144.129,0,0,0,0,0.0,0.0,0.0,0.0,1009.31,28.0,32.854034,9999999.0,32.854034,9999999.0,-3.211126,-0.41134506,0.5492506,-3.5188217,-0.10042359,-0.62492025,0.8732138,0.54283196,0.01361084
22:12:42.037;0.011286537,-0.5101512,8.036189,-0.28442025,0.44043815,0.12717122,-26.146772,6.346661,8.091497,144.12596,0,0,0,0,0.0,0.0,0.0,0.0,1009.31,28.0,32.854034,9999999.0,32.854034,9999999.0,-3.3104837,-0.40297335,0.5461151,-3.6323576,-0.08030815,-0.6271956,0.87673736,0.5399431,0.016647339
22:12:42.048;0.00902923,-0.5230426,8.037855,-0.28442025,0.44043815,0.12717122,-26.143019,6.346929,8.092398,144.12352,0,0,0,0,0.0,0.0,0.0,0.0,1009.31,28.0,32.854034,9999999.0,32.854034,9999999.0,-3.3914495,-0.39642045,0.54501283,-3.723123,-0.06422668,-0.6306086,0.8820226,0.54146916,0.019088745
22:12:42.058;0.007223384,-0.5333558,8.039187,-0.28442025,0.44043815,0.12717122,-26.140015,6.347143,8.093119,144.12157,0,0,0,0,0.0,0.0,0.0,0.0,1009.31,28.0,32.854034,9999999.0,32.854034,9999999.0,-3.456052,-0.39139646,0.54485345,-3.795695,-0.051368557,-0.63345283,0.886427,0.5427409,0.02104187
22:12:42.084;0.005778707,-0.53394485,8.032592,0.02075553,0.13526237,0.61545247,-26.156012,6.347315,8.0752945,144.12924,0,0,0,0,0.0,0.0,0.0,0.0,1009.29,28.0,33.020496,9999999.0,33.020496,9999999.0,-3.4617734,-0.38284105,0.5416128,-3.8029866,-0.041128244,-0.6329132,0.8899438,0.54604733,0.013366699
22:12:42.090;0.0046229656,-0.53441614,8.027315,0.02075553,0.13526237,0.61545247,-26.16881,6.347452,8.061035,144.13538,0,0,0,0,0.0,0.0,0.0,0.0,1009.29,28.0,33.020496,9999999.0,33.020496,9999999.0,-3.4662173,-0.37617218,0.5426094,-3.8088286,-0.032924004,-0.63278866,0.89075536,0.54974,0.007232666
22:12:42.100;0.0036983725,-0.53479314,8.023094,0.02075553,0.13526237,0.61545247,-26.179049,6.347562,8.049628,144.14029,0,0,0,0,0.0,0.0,0.0,0.0,1009.29,28.0,33.020496,9999999.0,33.020496,9999999.0,-3.4697528,-0.37055764,0.5467953,-3.813507,-0.026352916,-0.6325811,0.89210796,0.55589455,0.002319336
22:12:42.113;-0.004702748,-0.5197719,8.004395,-0.3454554,0.074227214,-0.05593425,-26.187239,6.3476496,8.040503,144.14421,0,0,0,0,0.0,0.0,0.0,0.0,1009.29,28.0,33.020496,9999999.0,33.020496,9999999.0,-3.381303,-0.30780128,0.55338466,-3.7153313,0.033591706,-0.637072,0.8930729,0.56389546,-0.0016021729
22:12:42.121;-0.011423644,-0.50775486,7.9894347,-0.3454554,0.074227214,-0.05593425,-26.19379,6.3477197,8.033202,144.14734,0,0,0,0,0.0,0.0,0.0,0.0,1009.29,28.0,33.020496,9999999.0,33.020496,9999999.0,-3.3038533,-0.25674284,0.55685234,-3.636441,0.08175901,-0.63983566,0.89366674,0.563448,-0.0047302246
22:12:42.130;-0.01680036,-0.49814123,7.977467,-0.3454554,0.074227214,-0.05593425,-26.199032,6.347776,8.027362,144.14986,0,0,0,0,0.0,0.0,0.0,0.0,1009.25,28.0,33.356064,9999999.0,33.356064,9999999.0,-3.2417784,-0.2157251,0.55863965,-3.5731037,0.120428845,-0.64294475,0.8943348,0.5629446,-0.007247925
22:12:42.141;-0.028763179,-0.51343465,7.9985385,-0.3454554,0.25733268,0.005100906,-26.203226,6.366221,8.04109,144.11386,0,0,0,0,0.0,0.0,0.0,0.0,1009.25,28.0,33.356064,9999999.0,33.356064,9999999.0,-3.327485,-0.14741224,0.5784822,-3.672814,0.20561467,-0.6467448,0.8971655,0.5623293,0.028747559
22:12:42.153;-0.038333435,-0.5256694,8.015396,-0.3454554,0.25733268,0.005100906,-26.206581,6.3809767,8.052073,144.08508,0,0,0,0,0.0,0.0,0.0,0.0,1009.25,28.0,33.356064,9999999.0,33.356064,9999999.0,-3.3920848,-0.09284185,0.58482283,-3.752182,0.2734262,-0.6505448,0.89999616,0.5623854,0.057525635
22:12:42.161;-0.04598964,-0.5354572,8.028882,-0.3454554,0.25733268,0.005100906,-26.209265,6.3927813,8.060858,144.06207,0,0,0,0,0.0,0.0,0.0,0.0,1009.25,28.0,33.356064,9999999.0,33.356064,9999999.0,-3.4434748,-0.049401283,0.5851322,-3.8154218,0.32746068,-0.6536539,0.90231216,0.5624313,0.08053589
22:12:42.172;-0.036791712,-0.54328746,8.009025,-0.28442025,0.379403,0.61545247,-26.211412,6.402225,8.067886,144.04367,0,0,0,0,0.0,0.0,0.0,0.0,1009.25,28.0,33.356064,9999999.0,33.356064,9999999.0,-3.4978285,-0.11302641,0.5830108,-3.8806396,0.262599,-0.65678257,0.9064856,0.56248736,0.09893799
22:12:42.182;-0.02943337,-0.54955167,7.993139,-0.28442025,0.379403,0.61545247,-26.213129,6.40978,8.073509,144.02896,0,0,0,0,0.0,0.0,0.0,0.0,1009.25,28.0,33.356064,264.36737,36.166203,2.6436737,-3.5512915,-0.165352,0.58287334,-3.9330366,0.21048409,-0.65934235,0.90990025,0.5680264,0.11364746
22:12:42.190;-0.03120814,-0.5392401,7.9880915,-0.2233851,0.44043815,-0.23903972,-26.196104,6.397424,8.078008,144.04587,0,0,0,0,0.0,0.0,0.0,0.0,1009.25,28.0,33.356064,264.36737,36.166203,2.6436737,-3.4924388,-0.14784542,0.56976604,-3.8618917,0.22333562,-0.6613528,0.9138642,0.5735655,0.09674072
22:12:42.202;-0.03262796,-0.5309909,7.9840536,-0.2233851,0.44043815,-0.23903972,-26.182484,6.3875394,8.081606,144.0594,0,0,0,0,0.0,0.0,0.0,0.0,1009.25,28.0,33.356064,264.36737,36.166203,2.6436737,-3.4394426,-0.13319293,0.56358373,-3.8049028,0.23362985,-0.6638101,0.91870904,0.570936,0.08320618
22:12:42.214;-0.03376381,-0.52439153,7.9808235,-0.2233851,0.44043815,-0.23903972,-26.171587,6.3796315,8.084485,144.07025,0,0,0,0,0.0,0.0,0.0,0.0,1009.23,28.0,33.52253,264.36737,36.166203,2.6436737,-3.3969476,-0.121436045,0.56028163,-3.7592645,0.24187352,-0.6667141,0.9244347,0.56782854,0.07235718
22:12:42.225;-0.027011048,-0.519112,7.985901,-0.2233851,0.31836784,0.24924153,-26.16287,6.3733053,8.086788,144.07893,0,0,0,0,0.0,0.0,0.0,0.0,1009.23,28.0,33.52253,264.36737,36.166203,2.6436737,-3.3596475,-0.16156799,0.5583992,-3.7191758,0.19338505,-0.66917133,0.9279368,0.5651991,0.06367493
22:12:42.234;-0.021608839,-0.5148884,7.9899626,-0.2233851,0.31836784,0.24924153,-26.155897,6.368244,8.088631,144.08589,0,0,0,0,0.0,0.0,0.0,0.0,1009.23,28.0,33.52253,264.36737,36.166203,2.6436737,-3.3347814,-0.19401993,0.5594417,-3.6871374,0.1546352,-0.6711818,0.9308021,0.56744224,0.05671692
22:12:42.245;-0.017287072,-0.51150954,7.993212,-0.2233851,0.31836784,0.24924153,-26.150318,6.3641953,8.090105,144.09146,0,0,0,0,0.0,0.0,0.0,0.0,1009.23,28.0,33.52253,9999999.0,33.52253,9999999.0,-3.3150218,-0.21985659,0.56202805,-3.661527,0.12366153,-0.67363906,0.9343042,0.5701839,0.05114746
22:12:42.256;-0.013829658,-0.51646787,8.011135,-0.10131478,0.19629753,0.432347,-26.164255,6.360956,8.091284,144.10516,0,0,0,0,0.0,0.0,0.0,0.0,1009.19,28.0,33.855457,9999999.0,33.855457,9999999.0,-3.3419063,-0.24514024,0.56062555,-3.688677,0.09870495,-0.67475355,0.9364635,0.5729255,0.03744507
22:12:42.278;-0.011063727,-0.52043456,8.025473,-0.10131478,0.19629753,0.432347,-26.175404,6.358365,8.092227,144.11612,0,0,0,0,0.0,0.0,0.0,0.0,1009.19,28.0,33.855457,9999999.0,33.855457,9999999.0,-3.3640046,-0.26504937,0.56583726,-3.7103088,0.078820996,-0.67688113,0.94058573,0.5820048,0.026489258
22:12:42.292;-0.0088509815,-0.51594645,8.013959,-0.10131478,0.56250846,0.12717122,-26.184322,6.3562922,8.092981,144.1249,0,0,0,0,0.0,0.0,0.0,0.0,1009.19,28.0,33.855457,9999999.0,33.855457,9999999.0,-3.3419614,-0.27651802,0.57277673,-3.6836717,0.0631493,-0.6784009,0.94902337,0.58849,0.017715454
22:12:42.298;-0.007080785,-0.5123559,8.004747,-0.10131478,0.56250846,0.12717122,-26.191458,6.354634,8.093585,144.1319,0,0,0,0,0.0,0.0,0.0,0.0,1009.19,28.0,33.855457,9999999.0,33.855457,9999999.0,-3.3237875,-0.28652033,0.577513,-3.6623056,0.050578795,-0.6790088,0.9523984,0.589253,0.01071167
22:12:42.308;-0.005664628,-0.5094835,7.9973783,-0.10131478,0.56250846,0.12717122,-26.197166,6.3533072,8.094069,144.1375,0,0,0,0,0.0,0.0,0.0,0.0,1009.19,28.0,33.855457,9999999.0,33.855457,9999999.0,-3.3094118,-0.2939277,0.58121884,-3.6451762,0.0405011,-0.68002194,0.9580235,0.59052473,0.0051116943
22:12:42.318;-0.012193148,-0.5071856,7.991483,-0.3454554,0.25733268,0.005100906,-26.201733,6.352246,8.094455,144.14197,0,0,0,0,0.0,0.0,0.0,0.0,1009.19,28.0,33.855457,9999999.0,33.855457,9999999.0,-3.2980392,-0.2510266,0.58427227,-3.6314456,0.08724446,-0.6834765,0.9605968,0.59179646,6.4086914E-4
22:12:42.328;-0.017415963,-0.50534725,7.9867673,-0.3454554,0.25733268,0.005100906,-26.205385,6.3513966,8.094764,144.14555,0,0,0,0,0.0,0.0,0.0,0.0,1009.19,28.0,33.855457,9999999.0,33.855457,9999999.0,-3.2838137,-0.21592897,0.5862644,-3.6204448,0.124689765,-0.6865856,0.9629128,0.59184235,-0.0029449463
22:12:42.344;-0.021594215,-0.50387657,7.9829946,-0.3454554,0.25733268,0.005100906,-26.208307,6.3507175,8.095011,144.14842,0,0,0,0,0.0,0.0,0.0,0.0,1009.19,28.0,33.855457,9999999.0,33.855457,9999999.0,-3.2724771,-0.18772835,0.58764964,-3.611633,0.15467843,-0.69073105,0.9660008,0.59190357,-0.0058135986
22:12:42.352;-0.017275373,-0.51802295,7.9952993,-0.16234994,0.379403,0.432347,-26.210646,6.350174,8.095209,144.15071,0,0,0,0,0.0,0.0,0.0,0.0,1009.23,28.0,33.52253,9999999.0,33.52253,9999999.0,-3.3553352,-0.22385496,0.58866537,-3.7070572,0.12353926,-0.6928416,0.970933,0.5919699,-0.008102417
22:12:42.370;-0.013820298,-0.52934,8.005143,-0.16234994,0.379403,0.432347,-26.212517,6.349739,8.095367,144.15254,0,0,0,0,0.0,0.0,0.0,0.0,1009.23,28.0,33.52253,9999999.0,33.52253,9999999.0,-3.4275303,-0.2532389,0.5932932,-3.7831697,0.09870135,-0.6957639,0.9777623,0.5997521,-0.009933472
22:12:42.379;-0.011056239,-0.5383937,8.013018,-0.16234994,0.379403,0.432347,-26.214014,6.3493915,8.095494,144.154,0,0,0,0,0.0,0.0,0.0,0.0,1009.23,28.0,33.52253,9999999.0,33.52253,9999999.0,-3.4849937,-0.27716777,0.59773576,-3.8439152,0.07887794,-0.69722503,0.9811769,0.60364324,-0.011398315
22:12:42.389;-0.008844991,-0.5379752,8.011656,-0.16234994,0.379403,0.06613606,-26.215212,6.3491135,8.095595,144.15518,0,0,0,0,0.0,0.0,0.0,0.0,1009.25,28.0,33.356064,9999999.0,33.356064,9999999.0,-3.4853091,-0.2913496,0.6022638,-3.8415887,0.063113265,-0.69884855,0.9849709,0.6079667,-0.012573242
22:12:42.400;-0.007075993,-0.5376404,8.010567,-0.16234994,0.379403,0.06613606,-26.21617,6.348891,8.095676,144.15613,0,0,0,0,0.0,0.0,0.0,0.0,1009.25,28.0,33.356064,9999999.0,33.356064,9999999.0,-3.4850674,-0.30264157,0.605006,-3.8397264,0.050497595,-0.7006344,0.9891444,0.6086942,-0.013519287
22:12:42.414;-0.005660794,-0.5373725,8.009695,-0.16234994,0.379403,0.06613606,-26.216936,6.348713,8.095741,144.15688,0,0,0,0,0.0,0.0,0.0,0.0,1009.25,28.0,33.356064,9999999.0,33.356064,9999999.0,-3.4848874,-0.31163323,0.6069062,-3.8382359,0.040402547,-0.70274496,0.9940766,0.609554,-0.014266968
22:12:42.420;-0.004528635,-0.5141739,8.001337,-0.2233851,0.44043815,-0.11696941,-26.217548,6.3485703,8.095793,144.15747,0,0,0,0,0.0,0.0,0.0,0.0,1009.25,28.0,33.356064,9999999.0,33.356064,9999999.0,-3.3404646,-0.30461258,0.608164,-3.676828,0.032361787,-0.7043086,0.99715966,0.61001694,-0.014862061
22:12:42.430;-0.0036229081,-0.49561504,7.9946504,-0.2233851,0.44043815,-0.11696941,-26.218039,6.3484564,8.095835,144.15796,0,0,0,0,0.0,0.0,0.0,0.0,1009.25,28.0,33.356064,9999999.0,33.356064,9999999.0,-3.223359,-0.29857218,0.60826147,-3.5474162,0.025914779,-0.7065425,1.001564,0.60884726,-0.015350342
22:12:42.440;-0.0028983266,-0.48076794,7.9893007,-0.2233851,0.44043815,-0.11696941,-26.218431,6.3483653,8.095868,144.15834,0,0,0,0,0.0,0.0,0.0,0.0,1009.23,28.0,33.52253,9999999.0,33.52253,9999999.0,-3.1294148,-0.29382783,0.6077788,-3.4437048,0.020748,-0.70877635,1.0059685,0.6076776,-0.015731812
22:12:42.461;-0.0023186612,-0.47655168,8.023329,-0.2233851,0.44043815,0.37131184,-26.200346,6.3482924,8.114295,144.14944,0,0,0,0,0.0,0.0,0.0,0.0,1009.23,28.0,33.52253,9999999.0,33.52253,9999999.0,-3.0890486,-0.2931481,0.61100644,-3.3991325,0.016528772,-0.7132441,1.0147772,0.6053382,-0.0068359375
22:12:42.469;-0.0018549289,-0.47317868,8.05055,-0.2233851,0.44043815,0.37131184,-26.185877,6.348234,8.129036,144.14232,0,0,0,0,0.0,0.0,0.0,0.0,1009.23,28.0,33.52253,9999999.0,33.52253,9999999.0,-3.0568845,-0.29343116,0.6134062,-3.3637433,0.013178787,-0.71525455,1.0187411,0.60868,2.89917E-4
22:12:42.479;-0.0014839431,-0.4858032,8.041682,-0.3454554,0.5014733,0.432347,-26.174301,6.3481874,8.140829,144.13661,0,0,0,0,0.0,0.0,0.0,0.0,1009.19,28.0,33.855457,9999999.0,33.855457,9999999.0,-3.1410546,-0.30410573,0.61575305,-3.4570735,0.010553632,-0.7187091,1.0237559,0.61239314,0.005996704
22:12:42.489;-0.0011871544,-0.49590278,8.034588,-0.3454554,0.5014733,0.432347,-26.165041,6.3481503,8.150264,144.13205,0,0,0,0,0.0,0.0,0.0,0.0,1009.19,28.0,33.855457,9999999.0,33.855457,9999999.0,-3.209441,-0.31283793,0.618516,-3.5318723,0.008449687,-0.7221637,1.0287707,0.6167166,0.010559082
22:12:42.501;-9.4972353E-4,-0.5039825,8.028913,-0.3454554,0.5014733,0.432347,-26.157633,6.34812,8.157811,144.12839,0,0,0,0,0.0,0.0,0.0,0.0,1009.19,28.0,33.855457,9999999.0,33.855457,9999999.0,-3.264282,-0.31978887,0.6218253,-3.591798,0.006764087,-0.7259637,1.0342869,0.6214724,0.014221191
22:12:42.511;-0.008421225,-0.51044625,8.01671,-0.40649056,0.25733268,-0.11696941,-26.170107,6.3480964,8.163849,144.1347,0,0,0,0,0.0,0.0,0.0,0.0,1009.19,28.0,33.855457,9999999.0,33.855457,9999999.0,-3.3113205,-0.27681607,0.620652,-3.6432614,0.060065202,-0.7300286,1.0368602,0.6257959,0.007904053
22:12:42.520;-0.014398426,-0.51561725,8.006948,-0.40649056,0.25733268,-0.11696941,-26.180086,6.3480773,8.168679,144.13974,0,0,0,0,0.0,0.0,0.0,0.0,1009.23,28.0,33.52253,9999999.0,33.52253,9999999.0,-3.3441725,-0.24162324,0.6201214,-3.6845384,0.10281856,-0.73409355,1.0394336,0.6246262,0.0028686523
22:12:42.535;-0.019180186,-0.51975405,7.9991393,-0.40649056,0.25733268,-0.11696941,-26.188068,6.348062,8.172544,144.14377,0,0,0,0,0.0,0.0,0.0,0.0,1009.23,28.0,33.52253,9999999.0,33.52253,9999999.0,-3.3706372,-0.21329367,0.6194824,-3.717628,0.1370934,-0.7401909,1.0432936,0.6228717,-0.001159668
22:12:42.543;0.0076401886,-0.53838634,7.9928923,-0.2233851,0.31836784,0.12717122,-26.194454,6.3480496,8.175635,144.14699,0,0,0,0,0.0,0.0,0.0,0.0,1009.23,28.0,33.52253,9999999.0,33.52253,9999999.0,-3.489671,-0.3978917,0.6190994,-3.8535144,-0.054643642,-0.741978,1.0458405,0.62193596,-0.0043792725
22:12:42.555;0.029096488,-0.5532922,7.9878945,-0.2233851,0.31836784,0.12717122,-26.199564,6.3480396,8.178108,144.14957,0,0,0,0,0.0,0.0,0.0,0.0,1009.23,28.0,33.52253,9999999.0,33.52253,9999999.0,-3.6061175,-0.54764533,0.61992776,-3.962314,-0.20820427,-0.74443525,1.0493425,0.6233348,-0.006958008
22:12:42.565;0.046261527,-0.5652169,7.9838963,-0.2233851,0.31836784,0.12717122,-26.203651,6.348032,8.180087,144.15164,0,0,0,0,0.0,0.0,0.0,0.0,1009.31,28.0,32.854034,9999999.0,32.854034,9999999.0,-3.6994557,-0.6676708,0.6212295,-4.049409,-0.33115953,-0.7466691,1.0525262,0.62460655,-0.009033203
22:12:42.583;0.03700922,-0.5670952,8.019005,-0.28442025,0.074227214,0.18820637,-26.20692,6.2928257,8.108069,144.26733,0,0,0,0,0.0,0.0,0.0,0.0,1009.31,28.0,32.854034,9999999.0,32.854034,9999999.0,-3.7078846,-0.6080481,0.56621647,-4.0451174,-0.26377022,-0.7517887,1.0538623,0.6268956,-0.12472534
22:12:42.593;0.029607376,-0.56859785,8.0470915,-0.28442025,0.074227214,0.18820637,-26.209536,6.2486606,8.050456,144.35995,0,0,0,0,0.0,0.0,0.0,0.0,1009.31,28.0,32.854034,9999999.0,32.854034,9999999.0,-3.6986535,-0.5590367,0.55128074,-4.0417066,-0.21028109,-0.7549173,1.0546788,0.62896585,-0.21734619
22:12:42.613;0.0236859,-0.56979996,8.069561,-0.28442025,0.074227214,0.18820637,-26.211628,6.2133284,8.004365,144.43408,0,0,0,0,0.0,0.0,0.0,0.0,1009.31,28.0,32.854034,9999999.0,32.854034,9999999.0,-3.6915655,-0.51998967,0.5549418,-4.0389924,-0.16775729,-0.76060575,1.0561633,0.63273,-0.2914734
22:12:42.630;-0.011697063,-0.5631002,8.0568905,-0.3454554,-0.0478431,0.18820637,-26.213303,6.185063,7.967492,144.49341,0,0,0,0,0.0,0.0,0.0,0.0,1009.31,28.0,32.854034,9999999.0,32.854034,9999999.0,-3.6506853,-0.29046306,0.5656785,-3.9979262,0.08298003,-0.766133,1.0553979,0.6357413,-0.35079956
22:12:42.633;-0.040003434,-0.5577404,8.046755,-0.3454554,-0.0478431,0.18820637,-26.214642,6.1624503,7.937994,144.5409,0,0,0,0,0.0,0.0,0.0,0.0,1009.29,28.0,33.020496,9999999.0,33.020496,9999999.0,-3.597579,-0.10403302,0.5772495,-3.9649212,0.2841547,-0.76716936,1.0552543,0.6363059,-0.3982849
22:12:42.646;-0.06264853,-0.55345255,8.038646,-0.3454554,-0.0478431,0.18820637,-26.215714,6.14436,7.9143953,144.57889,0,0,0,0,0.0,0.0,0.0,0.0,1009.29,28.0,33.020496,9999999.0,33.020496,9999999.0,-3.5554662,0.045306176,0.589098,-3.9384215,0.44546643,-0.77200574,1.0545845,0.6389408,-0.4362793
22:12:42.655;-0.050118823,-0.56534517,8.03982,-0.16234994,0.379403,0.06613606,-26.198172,6.129888,7.9507165,144.60037,0,0,0,0,0.0,0.0,0.0,0.0,1009.29,28.0,33.020496,9999999.0,33.020496,9999999.0,-3.6156096,-0.04059875,0.60403,-4.022234,0.35628745,-0.7733045,1.0576197,0.6404465,-0.45776367
22:12:42.664;-0.040095057,-0.57485926,8.040759,-0.16234994,0.379403,0.06613606,-26.184137,6.1183105,7.9797735,144.61758,0,0,0,0,0.0,0.0,0.0,0.0,1009.29,28.0,33.020496,9999999.0,33.020496,9999999.0,-3.684545,-0.11159819,0.613963,-4.0892477,0.28497434,-0.77492803,1.0614138,0.64110786,-0.4749756
22:12:42.674;-0.032076046,-0.58247054,8.041511,-0.16234994,0.379403,0.06613606,-26.17291,6.1090484,8.003019,144.63136,0,0,0,0,0.0,0.0,0.0,0.0,1009.25,28.0,33.356064,9999999.0,33.356064,9999999.0,-3.7398741,-0.16845886,0.6209768,-4.1428356,0.22794351,-0.77655154,1.0652078,0.64176923,-0.48875427
22:12:42.684;-0.04098373,-0.56557524,8.026789,-0.16234994,0.56250846,0.12717122,-26.163929,6.101639,8.021616,144.6424,0,0,0,0,0.0,0.0,0.0,0.0,1009.25,28.0,33.356064,9999999.0,33.356064,9999999.0,-3.64437,-0.101237714,0.6261877,-4.030402,0.29181868,-0.77817506,1.070833,0.6424306,-0.49978638
22:12:42.694;-0.048109874,-0.552059,8.015012,-0.16234994,0.56250846,0.12717122,-26.156744,6.095711,8.036493,144.65123,0,0,0,0,0.0,0.0,0.0,0.0,1009.25,28.0,33.356064,9999999.0,33.356064,9999999.0,-3.5564048,-0.04628867,0.6305276,-3.940132,0.34309924,-0.77979857,1.0764581,0.6437023,-0.5086212
22:12:42.704;-0.05381079,-0.541246,8.00559,-0.16234994,0.56250846,0.12717122,-26.150995,6.090969,8.048395,144.6583,0,0,0,0,0.0,0.0,0.0,0.0,1009.25,28.0,33.356064,9999999.0,33.356064,9999999.0,-3.4857292,-0.0021950305,0.63421845,-3.867709,0.38423935,-0.7814221,1.0820832,0.64497405,-0.51568604
22:12:42.717;-0.004741404,-0.5709028,8.03636,0.02075553,0.56250846,0.18820637,-26.164797,6.105575,8.076316,144.63464,0,0,0,0,0.0,0.0,0.0,0.0,1009.17,28.0,34.024563,9999999.0,34.024563,9999999.0,-3.6573095,-0.33465245,0.65224844,-4.0634637,0.033719186,-0.78115225,1.0893959,0.6466273,-0.4920349
22:12:42.732;0.034514103,-0.5946283,8.060976,0.02075553,0.56250846,0.18820637,-26.175837,6.11726,8.098653,144.61574,0,0,0,0,0.0,0.0,0.0,0.0,1009.17,28.0,34.024563,9999999.0,34.024563,9999999.0,-3.8303716,-0.6024374,0.6602081,-4.218817,-0.244653,-0.7808617,1.097271,0.6492622,-0.47312927
22:12:42.736;0.065918505,-0.61360866,8.080668,0.02075553,0.56250846,0.18820637,-26.18467,6.126608,8.116523,144.60062,0,0,0,0,0.0,0.0,0.0,0.0,1009.17,28.0,34.024563,9999999.0,34.024563,9999999.0,-3.9683027,-0.8159864,0.6627664,-4.3422995,-0.4660415,-0.7807579,1.1000835,0.6502032,-0.4580078
22:12:42.745;0.07571914,-0.6134701,8.0810995,-0.40649056,0.5014733,0.18820637,-26.191736,6.134086,8.130818,144.58855,0,0,0,0,0.0,0.0,0.0,0.0,1009.17,28.0,34.024563,9999999.0,34.024563,9999999.0,-3.9889057,-0.88020945,0.66336656,-4.341046,-0.5353002,-0.7844163,1.1045967,0.6518971,-0.4459381
22:12:42.755;0.08355965,-0.6133592,8.081445,-0.40649056,0.5014733,0.18820637,-26.19739,6.140069,8.142255,144.57889,0,0,0,0,0.0,0.0,0.0,0.0,1009.25,28.0,33.356064,9999999.0,33.356064,9999999.0,-3.994462,-0.93057543,0.66340226,-4.3400383,-0.5907008,-0.78848124,1.1096115,0.65377915,-0.4362793
22:12:42.772;0.08983205,-0.6132705,8.08172,-0.40649056,0.5014733,0.18820637,-26.201912,6.144855,8.151404,144.57115,0,0,0,0,0.0,0.0,0.0,0.0,1009.25,28.0,33.356064,9999999.0,33.356064,9999999.0,-3.9990551,-0.97056854,0.66405857,-4.3392296,-0.6350173,-0.79539156,1.1181365,0.65697867,-0.4285431
22:12:42.775;0.04121986,-0.58255374,8.066618,-0.28442025,0.6235436,0.24924153,-26.22393,6.111884,8.158724,144.65016,0,0,0,0,0.0,0.0,0.0,0.0,1009.25,28.0,33.356064,9999999.0,33.356064,9999999.0,-3.8146396,-0.64408994,0.6212959,-4.130553,-0.29201445,-0.7962448,1.1200072,0.6575433,-0.5075531
22:12:42.786;0.0023301058,-0.55798036,8.054537,-0.28442025,0.6235436,0.24924153,-26.241545,6.0855074,8.164579,144.7133,0,0,0,0,0.0,0.0,0.0,0.0,1009.25,28.0,33.356064,9999999.0,33.356064,9999999.0,-3.631287,-0.3773248,0.60922,-3.9628503,-0.016535528,-0.79937345,1.1268661,0.66028494,-0.57069397
22:12:42.797;-0.028781699,-0.5383216,8.044871,-0.28442025,0.6235436,0.24924153,-26.255636,6.064406,8.169264,144.76378,0,0,0,0,0.0,0.0,0.0,0.0,1009.19,28.0,33.855457,9999999.0,33.855457,9999999.0,-3.4834046,-0.16364376,0.6107607,-3.828209,0.20452574,-0.80221766,1.1331016,0.66277736,-0.62117004
22:12:42.807;-0.09197836,-0.51493317,8.014154,-0.28442025,0.25733268,0.18820637,-26.266909,6.047525,8.173011,144.80414,0,0,0,0,0.0,0.0,0.0,0.0,1009.19,28.0,33.855457,9999999.0,33.855457,9999999.0,-3.3251927,0.2583448,0.6179601,-3.6761284,0.6562011,-0.8053463,1.1359322,0.665519,-0.66152954
22:12:42.818;-0.1425357,-0.49622244,7.989581,-0.28442025,0.25733268,0.18820637,-26.275927,6.03402,8.176009,144.8364,0,0,0,0,0.0,0.0,0.0,0.0,1009.19,28.0,33.855457,9999999.0,33.855457,9999999.0,-3.1725714,0.6011108,0.62664616,-3.5534368,1.0200944,-0.80847496,1.1387628,0.66758925,-0.6937866
22:12:42.828;-0.18298157,-0.48125386,7.9699225,-0.28442025,0.25733268,0.18820637,-26.283142,6.0232162,8.178408,144.86221,0,0,0,0,0.0,0.0,0.0,0.0,1009.19,28.0,33.855457,9999999.0,33.855457,9999999.0,-3.0493407,0.876873,0.63514984,-3.4546304,1.3128332,-0.8113192,1.1413362,0.6694713,-0.7196045
22:12:42.841;-0.14638525,-0.49992478,7.992503,-0.10131478,0.31836784,0.24924153,-26.233713,6.014573,8.161926,144.85664,0,0,0,0,0.0,0.0,0.0,0.0,1009.25,28.0,33.356064,9999999.0,33.356064,9999999.0,-3.1331341,0.6296048,0.65631866,-3.5785444,1.0472271,-0.81263626,1.145475,0.67191803,-0.71403503
22:12:42.849;-0.1171082,-0.5148615,8.010568,-0.10131478,0.31836784,0.24924153,-26.19417,6.0076585,8.148741,144.85217,0,0,0,0,0.0,0.0,0.0,0.0,1009.25,28.0,33.356064,9999999.0,33.356064,9999999.0,-3.2465189,0.4278545,0.66735077,-3.6771092,0.8358352,-0.81344676,1.1480219,0.673912,-0.7095642
22:12:42.861;-0.093686566,-0.5268109,8.025019,-0.10131478,0.31836784,0.24924153,-26.162537,6.0021267,8.138193,144.84859,0,0,0,0,0.0,0.0,0.0,0.0,1009.25,28.0,33.356064,9999999.0,33.356064,9999999.0,-3.3373747,0.26732433,0.67391974,-3.7555983,0.66742194,-0.8146625,1.1518424,0.6769029,-0.7059784
22:12:42.871;-0.0826107,-0.5210475,8.021257,-0.28442025,0.5014733,0.12717122,-26.13723,5.9977016,8.129755,144.8457,0,0,0,0,0.0,0.0,0.0,0.0,1009.25,28.0,33.356064,9999999.0,33.356064,9999999.0,-3.3183298,0.1986117,0.6780995,-3.71642,0.5888258,-0.81750673,1.1568571,0.6793953,-0.7030945
22:12:42.884;-0.073750004,-0.51643676,8.018248,-0.28442025,0.5014733,0.12717122,-26.116983,5.9941616,8.123004,144.8434,0,0,0,0,0.0,0.0,0.0,0.0,1009.25,28.0,33.356064,9999999.0,33.356064,9999999.0,-3.2970471,0.14424726,0.68072605,-3.6850429,0.525889,-0.8212042,1.1633763,0.6810486,-0.7007904
22:12:42.892;-0.059000004,-0.52040964,8.008179,-0.28442025,0.56250846,-0.11696941,-26.100786,5.991329,8.117603,144.84155,0,0,0,0,0.0,0.0,0.0,0.0,1009.25,28.0,33.356064,9999999.0,33.356064,9999999.0,-3.3320246,0.04635343,0.68231916,-3.7180243,0.42122877,-0.82347953,1.1678764,0.68206596,-0.6989441
22:12:42.903;-0.0472,-0.52358794,8.000124,-0.28442025,0.56250846,-0.11696941,-26.08783,5.9890633,8.113283,144.84007,0,0,0,0,0.0,0.0,0.0,0.0,1009.25,28.0,33.356064,9999999.0,33.356064,9999999.0,-3.3656905,-0.03236741,0.68228924,-3.744459,0.3373143,-0.8266082,1.1740639,0.6807793,-0.697464
22:12:42.914;-0.03776,-0.5261306,7.99368,-0.28442025,0.56250846,-0.11696941,-26.077463,5.987251,8.109827,144.8389,0,0,0,0,0.0,0.0,0.0,0.0,1009.25,28.0,33.356064,9999999.0,33.356064,9999999.0,-3.3926244,-0.09558648,0.6814784,-3.7656388,0.27006355,-0.8297368,1.1802515,0.6794926,-0.69628906
22:12:42.926;-0.030208,-0.53582615,8.003847,-0.46752572,0.44043815,0.3102767,-26.06917,6.0778008,8.107061,144.64603,0,0,0,0,0.0,0.0,0.0,0.0,1009.19,28.0,33.855457,9999999.0,33.855457,9999999.0,-3.4571064,-0.15099731,0.77621925,-3.8299854,0.2157609,-0.8353471,1.1855367,0.67808896,-0.50341797
22:12:42.940;-0.024166401,-0.5435826,8.011981,-0.46752572,0.44043815,0.3102767,-26.062536,6.1502404,8.104849,144.49185,0,0,0,0,0.0,0.0,0.0,0.0,1009.19,28.0,33.855457,9999999.0,33.855457,9999999.0,-3.50891,-0.1951374,0.8062583,-3.8813362,0.17242338,-0.84142494,1.1912625,0.6821226,-0.34924316
22:12:42.945;-0.01933312,-0.54978776,8.018488,-0.46752572,0.44043815,0.3102767,-26.057228,6.2081923,8.103079,144.36859,0,0,0,0,0.0,0.0,0.0,0.0,1009.19,28.0,33.855457,9999999.0,33.855457,9999999.0,-3.5498965,-0.23068723,0.8067515,-3.9223359,0.13782018,-0.8442301,1.1939051,0.6839842,-0.22598267
22:12:42.954;-0.023127941,-0.5547519,8.031355,-0.3454554,0.44043815,0.49338216,-26.052982,6.254554,8.101664,144.27005,0,0,0,0,0.0,0.0,0.0,0.0,1009.19,28.0,33.855457,9999999.0,33.855457,9999999.0,-3.579562,-0.20941769,0.7960347,-3.951314,0.16460235,-0.8473392,1.1978691,0.6867767,-0.1274414
22:12:42.968;-0.026163798,-0.55872315,8.041649,-0.3454554,0.44043815,0.49338216,-26.049585,6.291643,8.100531,144.19125,0,0,0,0,0.0,0.0,0.0,0.0,1009.29,28.0,33.020496,9999999.0,33.020496,9999999.0,-3.5983753,-0.19189653,0.7840109,-3.9744272,0.18596494,-0.8518301,1.2035948,0.6931907,-0.04864502
22:12:42.977;-0.028592484,-0.5619002,8.049884,-0.3454554,0.44043815,0.49338216,-26.046867,6.3213143,8.099625,144.12823,0,0,0,0,0.0,0.0,0.0,0.0,1009.29,28.0,33.020496,9999999.0,33.020496,9999999.0,-3.6131217,-0.17815846,0.7725771,-3.9928741,0.20301478,-0.8552847,1.2079992,0.6981245,0.014373779
22:12:42.988;-0.022873987,-0.54911894,8.033487,-0.16234994,0.379403,-0.30007488,-26.063093,6.3266516,8.0805,144.12532,0,0,0,0,0.0,0.0,0.0,0.0,1009.29,28.0,33.020496,9999999.0,33.020496,9999999.0,-3.5372488,-0.20682377,0.7395216,-3.9102829,0.16275975,-0.85707057,1.2121726,0.7035517,0.017288208
22:12:43.000;-0.018299188,-0.53889394,8.0203705,-0.16234994,0.379403,-0.30007488,-26.076075,6.330921,8.0652,144.123,0,0,0,0,0.0,0.0,0.0,0.0,1009.29,28.0,33.020496,9999999.0,33.020496,9999999.0,-3.480435,-0.23020023,0.7208959,-3.8439531,0.1304311,-0.85901874,1.2167255,0.6999508,0.019607544
22:12:43.008;-0.014639351,-0.5307139,8.009877,-0.16234994,0.379403,-0.30007488,-26.08646,6.334337,8.052959,144.12115,0,0,0,0,0.0,0.0,0.0,0.0,1009.35,28.0,32.521107,9999999.0,32.521107,9999999.0,-3.4348018,-0.24913736,0.7101462,-3.7907243,0.10448812,-0.8603175,1.2197607,0.69755024,0.021453857
22:12:43.023;-0.01171148,-0.5241699,8.016806,-0.40649056,0.25733268,0.005100906,-26.094769,6.33707,8.043167,144.11967,0,0,0,0,0.0,0.0,0.0,0.0,1009.35,28.0,32.521107,9999999.0,32.521107,9999999.0,-3.3923264,-0.2636759,0.70233774,-3.7408922,0.083523065,-0.8664149,1.2236207,0.69304913,0.02293396
22:12:43.027;-0.009369184,-0.5189347,8.022348,-0.40649056,0.25733268,0.005100906,-26.101416,6.3392563,8.035334,144.11848,0,0,0,0,0.0,0.0,0.0,0.0,1009.35,28.0,32.521107,9999999.0,32.521107,9999999.0,-3.3575056,-0.27554986,0.6982987,-3.7010837,0.06677532,-0.86804086,1.22465,0.6930695,0.024124146
22:12:43.038;-0.0074953474,-0.51474655,8.026782,-0.40649056,0.25733268,0.005100906,-26.106733,6.3410053,8.029067,144.11754,0,0,0,0,0.0,0.0,0.0,0.0,1009.35,28.0,32.521107,9999999.0,32.521107,9999999.0,-3.3303485,-0.28469837,0.6961852,-3.6692739,0.053392667,-0.8725123,1.2274806,0.6931256,0.02507019
22:12:43.048;0.0016651675,-0.5267189,8.030329,-0.040279627,0.56250846,0.5544173,-26.110987,6.3424044,8.042454,144.11678,0,0,0,0,0.0,0.0,0.0,0.0,1009.23,28.0,33.52253,9999999.0,33.52253,9999999.0,-3.405961,-0.35070345,0.6950624,-3.7527235,-0.011855368,-0.8729151,1.2331058,0.6931766,0.02583313
22:12:43.061;0.008993579,-0.5362968,8.033167,-0.040279627,0.56250846,0.5544173,-26.11439,6.3435235,8.053164,144.11617,0,0,0,0,0.0,0.0,0.0,0.0,1009.23,28.0,33.52253,9999999.0,33.52253,9999999.0,-3.4725957,-0.40413132,0.69802845,-3.8194146,-0.064003326,-0.8734387,1.2404184,0.7003841,0.026443481
22:12:43.067;0.014856309,-0.5439591,8.035437,-0.040279627,0.56250846,0.5544173,-26.117111,6.344419,8.061731,144.11568,0,0,0,0,0.0,0.0,0.0,0.0,1009.23,28.0,33.52253,9999999.0,33.52253,9999999.0,-3.5258887,-0.4473717,0.70111364,-3.872724,-0.105689235,-0.8736804,1.2437935,0.70371056,0.026931763
22:12:43.078;0.019546492,-0.55008894,8.037252,-0.040279627,0.56250846,0.5544173,-26.11929,6.345135,8.068585,144.1153,0,0,0,0,0.0,0.0,0.0,0.0,1009.23,28.0,33.52253,9999999.0,33.52253,9999999.0,-3.5685906,-0.48135567,0.7056521,-3.9153438,-0.13901709,-0.8741235,1.249981,0.7098091,0.027313232
22:12:43.087;0.015637193,-0.5473314,8.038706,-0.40649056,0.19629753,-0.05593425,-26.12103,6.3457084,8.074068,144.11499,0,0,0,0,0.0,0.0,0.0,0.0,1009.31,28.0,32.854034,9999999.0,32.854034,9999999.0,-3.5540726,-0.45530728,0.71037805,-3.8950791,-0.11119632,-0.8777819,1.2517477,0.71479887,0.027618408
22:12:43.097;0.012509754,-0.54512537,8.039868,-0.40649056,0.19629753,-0.05593425,-26.122425,6.3461666,8.078455,144.11473,0,0,0,0,0.0,0.0,0.0,0.0,1009.31,28.0,32.854034,9999999.0,32.854034,9999999.0,-3.5369213,-0.4335472,0.71243846,-3.8788712,-0.08894594,-0.88184685,1.2537107,0.71423954,0.027877808
22:12:43.108;0.010007803,-0.54336053,8.040798,-0.40649056,0.19629753,-0.05593425,-26.12354,6.3465333,8.0819645,144.11453,0,0,0,0,0.0,0.0,0.0,0.0,1009.31,28.0,32.854034,9999999.0,32.854034,9999999.0,-3.5231185,-0.4161306,0.71313053,-3.8659077,-0.07114963,-0.88631827,1.25587,0.71362424,0.028076172
22:12:43.118;0.008006243,-0.5342872,8.03388,-0.5285609,0.31836784,0.005100906,-26.124434,6.328427,8.066372,144.1525,0,0,0,0,0.0,0.0,0.0,0.0,1009.31,28.0,32.854034,9999999.0,32.854034,9999999.0,-3.466469,-0.39760408,0.69411576,-3.8048084,-0.05697281,-0.8916039,1.2590537,0.7130649,-0.009887695
22:12:43.128;0.0064049945,-0.52702856,8.028346,-0.5285609,0.31836784,0.005100906,-26.125147,6.3139415,8.053898,144.18286,0,0,0,0,0.0,0.0,0.0,0.0,1009.25,28.0,33.356064,9999999.0,33.356064,9999999.0,-3.4205508,-0.38278776,0.68843335,-3.7558467,-0.045612246,-0.8968895,1.2622374,0.71311593,-0.040252686
22:12:43.141;0.0051239957,-0.52122164,8.023919,-0.5285609,0.31836784,0.005100906,-26.125717,6.3023534,8.043919,144.20715,0,0,0,0,0.0,0.0,0.0,0.0,1009.25,28.0,33.356064,9999999.0,33.356064,9999999.0,-3.383928,-0.37083933,0.6886618,-3.7166247,-0.036511563,-0.9037608,1.2663763,0.7131823,-0.06454468
22:12:43.148;0.011760643,-0.53956044,8.0357,0.02075553,0.379403,0.5544173,-26.126173,6.2930827,8.035934,144.22661,0,0,0,0,0.0,0.0,0.0,0.0,1009.25,28.0,33.356064,9999999.0,33.356064,9999999.0,-3.4943104,-0.42446554,0.6912124,-3.841379,-0.08366674,-0.9036155,1.2690321,0.713218,-0.083999634
22:12:43.160;0.01706996,-0.55423146,8.045125,0.02075553,0.379403,0.5544173,-26.12654,6.285666,8.029548,144.24216,0,0,0,0,0.0,0.0,0.0,0.0,1009.25,28.0,33.356064,9999999.0,33.356064,9999999.0,-3.5892253,-0.46765828,0.6974901,-3.9408908,-0.12128122,-0.9033872,1.2732055,0.71931654,-0.09954834
22:12:43.171;0.021317413,-0.5659683,8.052665,0.02075553,0.379403,0.5544173,-26.126831,6.2797327,8.024438,144.25461,0,0,0,0,0.0,0.0,0.0,0.0,1009.29,28.0,33.020496,9999999.0,33.020496,9999999.0,-3.6650238,-0.5022195,0.70550424,-4.020314,-0.15130264,-0.9031381,1.2777584,0.72596955,-0.11199951
22:12:43.180;0.024715375,-0.5676963,8.051035,-0.46752572,0.13526237,0.005100906,-26.108665,6.2749863,8.02035,144.2554,0,0,0,0,0.0,0.0,0.0,0.0,1009.29,28.0,33.020496,9999999.0,33.020496,9999999.0,-3.680664,-0.525852,0.71783507,-4.033357,-0.17545259,-0.90734583,1.2789757,0.7309593,-0.11279297
22:12:43.192;0.027433746,-0.5690787,8.049731,-0.46752572,0.13526237,0.005100906,-26.094131,6.271189,8.01708,144.25603,0,0,0,0,0.0,0.0,0.0,0.0,1009.29,28.0,33.020496,9999999.0,33.020496,9999999.0,-3.6925611,-0.5443949,0.724115,-4.0437946,-0.194779,-0.9129561,1.2805989,0.7310205,-0.11341858
22:12:43.203;0.029608442,-0.57018465,8.048689,-0.46752572,0.13526237,0.005100906,-26.082504,6.2681513,8.014464,144.25653,0,0,0,0,0.0,0.0,0.0,0.0,1009.29,28.0,33.020496,9999999.0,33.020496,9999999.0,-3.7018387,-0.5592684,0.72734153,-4.0521464,-0.21024421,-0.9176314,1.2819515,0.73107153,-0.11392212
22:12:43.213;0.023686754,-0.5480851,8.040194,-0.28442025,0.25733268,-0.30007488,-26.073204,6.265721,8.012371,144.25694,0,0,0,0,0.0,0.0,0.0,0.0,1009.19,28.0,33.855457,9999999.0,33.855457,9999999.0,-3.5659668,-0.50787765,0.7290286,-3.899697,-0.1684045,-0.92076004,1.2847822,0.7311276,-0.11433411
22:12:43.223;0.018949402,-0.5304054,8.033397,-0.28442025,0.25733268,-0.30007488,-26.065763,6.263777,8.010696,144.25726,0,0,0,0,0.0,0.0,0.0,0.0,1009.19,28.0,33.855457,9999999.0,33.855457,9999999.0,-3.4507892,-0.46619293,0.7284175,-3.7774634,-0.13485703,-0.92360425,1.2873555,0.7281269,-0.11465454
22:12:43.233;0.015159522,-0.539246,8.035621,-0.10131478,0.379403,0.432347,-26.07821,6.2622213,8.027758,144.26671,0,0,0,0,0.0,0.0,0.0,0.0,1009.19,28.0,33.855457,9999999.0,33.855457,9999999.0,-3.5019844,-0.4468823,0.72204924,-3.8391821,-0.1078481,-0.9246174,1.2911496,0.72512615,-0.12409973
22:12:43.245;0.012127617,-0.5463185,8.0374,-0.10131478,0.379403,0.432347,-26.08817,6.2609773,8.041407,144.27426,0,0,0,0,0.0,0.0,0.0,0.0,1009.19,28.0,33.855457,9999999.0,33.855457,9999999.0,-3.5444825,-0.4316219,0.7224052,-3.8885252,-0.086254396,-0.92583317,1.2957025,0.7303143,-0.13165283
22:12:43.255;0.009702094,-0.55197644,8.038824,-0.10131478,0.379403,0.432347,-26.096136,6.2599816,8.052325,144.28029,0,0,0,0,0.0,0.0,0.0,0.0,1009.25,28.0,33.356064,9999999.0,33.356064,9999999.0,-3.578445,-0.41955438,0.72550786,-3.9279795,-0.06898807,-0.9268463,1.2994965,0.7346378,-0.13768005
22:12:43.264;1.0022987E-4,-0.54117996,8.032301,-0.28442025,0.25733268,0.12717122,-26.102509,6.2591853,8.06106,144.28511,0,0,0,0,0.0,0.0,0.0,0.0,1009.25,28.0,33.356064,9999999.0,33.356064,9999999.0,-3.511265,-0.3515369,0.72960746,-3.8545039,-7.1333954E-4,-0.9294061,1.3018125,0.7385289,-0.14250183
22:12:43.275;-0.0075812615,-0.53254277,8.027082,-0.28442025,0.25733268,0.12717122,-26.107607,6.2585483,8.0680485,144.28897,0,0,0,0,0.0,0.0,0.0,0.0,1009.25,28.0,33.356064,9999999.0,33.356064,9999999.0,-3.4515,-0.29629728,0.7327738,-3.7956245,0.053994883,-0.9322503,1.3043859,0.73980063,-0.1463623
22:12:43.285;-0.013726454,-0.525633,8.022908,-0.28442025,0.25733268,0.12717122,-26.111685,6.2580385,8.073639,144.29207,0,0,0,0,0.0,0.0,0.0,0.0,1009.25,28.0,33.356064,9999999.0,33.356064,9999999.0,-3.4035254,-0.25205904,0.73537433,-3.748457,0.09781797,-0.93509454,1.3069593,0.74107236,-0.14945984
22:12:43.297;-0.018642608,-0.5201052,8.019568,-0.3454554,0.13526237,-0.11696941,-26.114948,6.257631,8.078112,144.29453,0,0,0,0,0.0,0.0,0.0,0.0,1009.25,28.0,33.356064,9999999.0,33.356064,9999999.0,-3.365235,-0.2167399,0.73775804,-3.710683,0.13291258,-0.93924,1.3085824,0.7425984,-0.1519165
22:12:43.305;-0.022575531,-0.51568294,8.016897,-0.3454554,0.13526237,-0.11696941,-26.11756,6.2573047,8.08169,144.29651,0,0,0,0,0.0,0.0,0.0,0.0,1009.25,28.0,33.356064,9999999.0,33.356064,9999999.0,-3.3343785,-0.18840589,0.73866004,-3.6804376,0.16101137,-0.9423491,1.3097998,0.7415457,-0.15390015
22:12:43.315;-0.02572187,-0.51214516,8.01476,-0.3454554,0.13526237,-0.11696941,-26.119648,6.257044,8.084552,144.29808,0,0,0,0,0.0,0.0,0.0,0.0,1009.25,28.0,33.356064,9999999.0,33.356064,9999999.0,-3.3097882,-0.16568892,0.7387322,-3.6562247,0.18350518,-0.94580364,1.3111525,0.740376,-0.1554718
22:12:43.332;-0.020577496,-0.5246378,8.020712,-0.28442025,0.379403,0.432347,-26.139719,6.275235,8.068441,144.27034,0,0,0,0,0.0,0.0,0.0,0.0,1009.25,28.0,33.356064,9999999.0,33.356064,9999999.0,-3.3851795,-0.20589793,0.7524301,-3.7423952,0.14668112,-0.95035434,1.317223,0.7383875,-0.12773132
22:12:43.335;-0.016461996,-0.5346319,8.025473,-0.28442025,0.379403,0.432347,-26.155775,6.2897882,8.055553,144.24818,0,0,0,0,0.0,0.0,0.0,0.0,1009.29,28.0,33.020496,9999999.0,33.020496,9999999.0,-3.450779,-0.23942462,0.756919,-3.8112266,0.117266074,-0.9512076,1.3183612,0.7392522,-0.10557556
22:12:43.347;-0.013169597,-0.5426272,8.029282,-0.28442025,0.379403,0.432347,-26.16862,6.3014307,8.045242,144.23048,0,0,0,0,0.0,0.0,0.0,0.0,1009.29,28.0,33.020496,9999999.0,33.020496,9999999.0,-3.5038857,-0.26554716,0.7595298,-3.8662245,0.09376236,-0.9546206,1.322914,0.7444404,-0.087875366
22:12:43.355;-0.010535678,-0.54902345,8.032329,-0.28442025,0.379403,0.432347,-26.178896,6.310745,8.036994,144.21634,0,0,0,0,0.0,0.0,0.0,0.0,1009.29,28.0,33.020496,9999999.0,33.020496,9999999.0,-3.5459437,-0.28681105,0.76078695,-3.9101796,0.074977554,-0.95689595,1.3259492,0.7478992,-0.07373047
22:12:43.371;-0.008428542,-0.5388175,8.027105,-0.28442025,0.31836784,0.12717122,-26.187117,6.318196,8.0303955,144.20503,0,0,0,0,0.0,0.0,0.0,0.0,1009.29,28.0,33.020496,9999999.0,33.020496,9999999.0,-3.4853468,-0.29397002,0.7636714,-3.8402026,0.06002605,-0.9617311,1.3313614,0.7552491,-0.062423706
22:12:43.375;-0.0067428336,-0.5306528,8.022926,-0.28442025,0.31836784,0.12717122,-26.193693,6.3241568,8.025116,144.19598,0,0,0,0,0.0,0.0,0.0,0.0,1009.23,28.0,33.52253,9999999.0,33.52253,9999999.0,-3.4352431,-0.3001529,0.76423883,-3.7841473,0.04804899,-0.96286875,1.3326349,0.75575775,-0.053375244
22:12:43.385;-0.005394267,-0.52412105,8.019583,-0.28442025,0.31836784,0.12717122,-26.198954,6.3289256,8.020893,144.18875,0,0,0,0,0.0,0.0,0.0,0.0,1009.23,28.0,33.52253,9999999.0,33.52253,9999999.0,-3.3956296,-0.3046331,0.7642505,-3.7392557,0.038457204,-0.96571296,1.3358186,0.7570295,-0.046142578
22:12:43.395;0.0033460315,-0.5188956,8.016909,-0.28442025,0.25733268,-0.23903972,-26.203163,6.3143406,8.017514,144.221,0,0,0,0,0.0,0.0,0.0,0.0,1009.23,28.0,33.52253,9999999.0,33.52253,9999999.0,-3.3637283,-0.35759285,0.745155,-3.703312,-0.023863707,-0.9685572,1.338392,0.7583012,-0.0783844
22:12:43.405;0.010338271,-0.5147153,8.014769,-0.28442025,0.25733268,-0.23903972,-26.20653,6.3026724,8.0148115,144.24678,0,0,0,0,0.0,0.0,0.0,0.0,1009.23,28.0,33.52253,9999999.0,33.52253,9999999.0,-3.343125,-0.40043378,0.7376392,-3.674535,-0.073754,-0.9714014,1.3409654,0.7559108,-0.10417175
22:12:43.417;0.015932063,-0.511371,8.013057,-0.28442025,0.25733268,-0.23903972,-26.209223,6.293338,8.01265,144.26741,0,0,0,0,0.0,0.0,0.0,0.0,1009.23,28.0,33.52253,9999999.0,33.52253,9999999.0,-3.3267047,-0.4347063,0.73514533,-3.6514986,-0.11368765,-0.97453004,1.343796,0.75328135,-0.124801636
22:12:43.425;0.0127456505,-0.52401847,8.034672,-0.28442025,0.25733268,0.61545247,-26.211378,6.28587,8.01092,144.28392,0,0,0,0,0.0,0.0,0.0,0.0,1009.23,28.0,33.52253,9999999.0,33.52253,9999999.0,-3.4020956,-0.42160553,0.73488265,-3.7315211,-0.09069732,-0.9770898,1.346112,0.75113,-0.14131165
22:12:43.436;0.01019652,-0.5341365,8.051964,-0.28442025,0.25733268,0.61545247,-26.213102,6.2798963,8.009536,144.29712,0,0,0,0,0.0,0.0,0.0,0.0,1009.23,28.0,33.52253,9999999.0,33.52253,9999999.0,-3.4581707,-0.41069108,0.73979187,-3.7952194,-0.072396755,-0.98021847,1.3489426,0.75789994,-0.1545105
22:12:43.447;0.008157216,-0.54223084,8.065798,-0.28442025,0.25733268,0.61545247,-26.214481,6.275117,8.008429,144.3077,0,0,0,0,0.0,0.0,0.0,0.0,1009.23,28.0,33.52253,9999999.0,33.52253,9999999.0,-3.50273,-0.40204886,0.74663603,-3.845974,-0.057814658,-0.9830627,1.351516,0.7640545,-0.16508484
22:12:43.457;-0.0011356724,-0.5410449,8.053881,-0.3454554,0.25733268,0.37131184,-26.178785,6.2712936,8.007543,144.29791,0,0,0,0,0.0,0.0,0.0,0.0,1009.13,28.0,34.357487,9999999.0,34.357487,9999999.0,-3.4995103,-0.342413,0.7636207,-3.8432505,0.008061071,-0.9868627,1.3543466,0.77082443,-0.15530396
22:12:43.468;-0.008569984,-0.54009616,8.044347,-0.3454554,0.25733268,0.37131184,-26.150229,6.2682347,8.006834,144.29007,0,0,0,0,0.0,0.0,0.0,0.0,1009.13,28.0,34.357487,9999999.0,34.357487,9999999.0,-3.4915776,-0.29406244,0.77318627,-3.8410628,0.060902487,-0.99066275,1.3571773,0.77490884,-0.14746094
22:12:43.479;-0.014517432,-0.5240143,8.052042,-0.40649056,0.31836784,-0.11696941,-26.127382,6.2657876,8.006268,144.2838,0,0,0,0,0.0,0.0,0.0,0.0,1009.13,28.0,34.357487,9999999.0,34.357487,9999999.0,-3.38097,-0.24497186,0.77922547,-3.723463,0.103083275,-0.9951342,1.3606793,0.77899325,-0.14118958
22:12:43.492;-0.019275391,-0.5111488,8.058199,-0.40649056,0.31836784,-0.11696941,-26.109106,6.26383,8.005814,144.27876,0,0,0,0,0.0,0.0,0.0,0.0,1009.13,28.0,34.357487,9999999.0,34.357487,9999999.0,-3.2915537,-0.20567349,0.7809253,-3.629521,0.13677762,-1.000012,1.3644997,0.7775896,-0.13615417
22:12:43.500;-0.023081759,-0.5008564,8.063124,-0.40649056,0.31836784,-0.11696941,-26.094484,6.2622643,8.005451,144.27473,0,0,0,0,0.0,0.0,0.0,0.0,1009.35,28.0,32.521107,9999999.0,32.521107,9999999.0,-3.2199433,-0.17437711,0.78074527,-3.5544558,0.16370079,-1.0036705,1.367365,0.7765369,-0.13212585
22:12:43.511;-0.026126852,-0.49262246,8.067064,-0.40649056,0.31836784,-0.11696941,-26.082787,6.2610116,8.005161,144.2715,0,0,0,0,0.0,0.0,0.0,0.0,1009.35,28.0,32.521107,9999999.0,32.521107,9999999.0,-3.162899,-0.14924301,0.77961516,-3.49446,0.18521854,-1.0081419,1.370867,0.7752502,-0.12889099
22:12:43.527;-0.020901483,-0.5090197,8.070216,-0.28442025,0.44043815,0.3102767,-26.11023,6.2600093,8.004929,144.28725,0,0,0,0,0.0,0.0,0.0,0.0,1009.35,28.0,32.521107,9999999.0,32.521107,9999999.0,-3.263545,-0.19236094,0.76862335,-3.609073,0.14809877,-1.0126926,1.3779141,0.7733787,-0.14463806
22:12:43.533;-0.016721185,-0.5221374,8.072738,-0.28442025,0.44043815,0.3102767,-26.132183,6.2592072,8.004743,144.29982,0,0,0,0,0.0,0.0,0.0,0.0,1009.35,28.0,32.521107,9999999.0,32.521107,9999999.0,-3.3500156,-0.22815031,0.7656452,-3.7006767,0.118429996,-1.014399,1.3805567,0.7752403,-0.1572113
22:12:43.543;-0.013376948,-0.5249702,8.067094,-0.40649056,0.6235436,0.49338216,-26.149746,6.258566,8.004594,144.30988,0,0,0,0,0.0,0.0,0.0,0.0,1009.35,28.0,32.521107,9999999.0,32.521107,9999999.0,-3.3741884,-0.25146818,0.76696634,-3.7232966,0.0948079,-1.018464,1.3867922,0.7783431,-0.16726685
22:12:43.558;-0.010701559,-0.5272364,8.062578,-0.40649056,0.6235436,0.49338216,-26.163797,6.258053,8.004475,144.3179,0,0,0,0,0.0,0.0,0.0,0.0,1009.35,28.0,32.521107,9999999.0,32.521107,9999999.0,-3.3929887,-0.27012736,0.7720953,-3.7414143,0.07588726,-1.0241548,1.3955218,0.7852504,-0.17529297
22:12:43.567;-0.008561247,-0.52904934,8.058966,-0.40649056,0.6235436,0.49338216,-26.175037,6.2576423,8.004379,144.32431,0,0,0,0,0.0,0.0,0.0,0.0,1009.35,28.0,32.521107,9999999.0,32.521107,9999999.0,-3.407749,-0.28548893,0.77793545,-3.7559218,0.06073603,-1.0282197,1.4017572,0.79018426,-0.18170166
22:12:43.575;-0.0068489974,-0.52283823,8.040753,-0.2233851,0.31836784,-0.17800456,-26.14723,6.2573137,8.022703,144.31122,0,0,0,0,0.0,0.0,0.0,0.0,1009.35,28.0,32.521107,9999999.0,32.521107,9999999.0,-3.3770294,-0.29361746,0.7925794,-3.7203355,0.048700858,-1.0300068,1.4043041,0.79413134,-0.16860962
22:12:43.585;-0.005479198,-0.51786935,8.026183,-0.2233851,0.31836784,-0.17800456,-26.124985,6.257051,8.037363,144.30072,0,0,0,0,0.0,0.0,0.0,0.0,1009.35,28.0,32.521107,9999999.0,32.521107,9999999.0,-3.3521585,-0.2997681,0.79771435,-3.6917484,0.03903268,-1.0322406,1.4074879,0.7923513,-0.15811157
22:12:43.598;-0.004383358,-0.51389426,8.014527,-0.2233851,0.31836784,-0.17800456,-26.107187,6.2568407,8.04909,144.29231,0,0,0,0,0.0,0.0,0.0,0.0,1009.31,28.0,32.854034,9999999.0,32.854034,9999999.0,-3.332189,-0.3046599,0.7980796,-3.668802,0.031272363,-1.0351447,1.4116267,0.7900373,-0.14970398
22:12:43.607;-0.0035066865,-0.5107142,8.012864,-0.2233851,0.5014733,0.49338216,-26.092949,6.2566724,8.058473,144.28557,0,0,0,0,0.0,0.0,0.0,0.0,1009.31,28.0,32.854034,9999999.0,32.854034,9999999.0,-3.3128908,-0.30831644,0.7966296,-3.6469152,0.025023695,-1.0371552,1.41614,0.7884352,-0.1429596
22:12:43.618;-0.0028053492,-0.5081701,8.011534,-0.2233851,0.5014733,0.49338216,-26.081558,6.256538,8.065978,144.28018,0,0,0,0,0.0,0.0,0.0,0.0,1009.31,28.0,32.854034,9999999.0,32.854034,9999999.0,-3.297536,-0.31118158,0.7979392,-3.6293983,0.02002267,-1.0396124,1.4216561,0.7938624,-0.13757324
22:12:43.628;-0.0022442793,-0.50613487,8.010469,-0.2233851,0.5014733,0.49338216,-26.072447,6.25643,8.071982,144.27586,0,0,0,0,0.0,0.0,0.0,0.0,1009.31,28.0,32.854034,9999999.0,32.854034,9999999.0,-3.2851834,-0.31359842,0.80052686,-3.61538,0.01602051,-1.0418463,1.4266709,0.79879624,-0.133255
22:12:43.637;-0.0017954234,-0.5121681,8.017279,-0.3454554,0.31836784,0.12717122,-26.083557,6.2563443,8.076786,144.28159,0,0,0,0,0.0,0.0,0.0,0.0,1009.23,28.0,33.52253,9999999.0,33.52253,9999999.0,-3.321406,-0.3203296,0.79902077,-3.6552613,0.012804958,-1.0449554,1.4295362,0.80323666,-0.13897705
22:12:43.647;-0.0014363388,-0.5169947,8.022726,-0.3454554,0.31836784,0.12717122,-26.092445,6.2562757,8.080629,144.28615,0,0,0,0,0.0,0.0,0.0,0.0,1009.23,28.0,33.52253,9999999.0,33.52253,9999999.0,-3.3507473,-0.32557523,0.79941976,-3.687115,0.010236646,-1.0480645,1.4324015,0.8043812,-0.14353943
22:12:43.658;-0.001149071,-0.520856,8.027084,-0.3454554,0.31836784,0.12717122,-26.099556,6.2562203,8.083704,144.2898,0,0,0,0,0.0,0.0,0.0,0.0,1009.23,28.0,33.52253,9999999.0,33.52253,9999999.0,-3.3742807,-0.32967985,0.8008401,-3.7125652,0.008184635,-1.05221,1.436222,0.80590725,-0.14718628
22:12:43.667;-9.192568E-4,-0.50862217,8.015248,-0.46752572,0.379403,0.005100906,-26.105246,6.2561765,8.0861635,144.29272,0,0,0,0,0.0,0.0,0.0,0.0,1009.23,28.0,33.52253,9999999.0,33.52253,9999999.0,-3.3012342,-0.3238798,0.80248106,-3.6309395,0.006557977,-1.0564177,1.4396366,0.8070518,-0.15011597
22:12:43.677;-7.354055E-4,-0.4988351,8.005779,-0.46752572,0.379403,0.005100906,-26.109797,6.256141,8.088131,144.29506,0,0,0,0,0.0,0.0,0.0,0.0,1009.23,28.0,33.52253,9999999.0,33.52253,9999999.0,-3.241718,-0.31910267,0.80362207,-3.5654547,0.0052529643,-1.0606254,1.4430512,0.8070977,-0.15245056
22:12:43.688;-5.883244E-4,-0.49100542,7.998204,-0.46752572,0.379403,0.005100906,-26.113438,6.256113,8.0897045,144.29694,0,0,0,0,0.0,0.0,0.0,0.0,1009.23,28.0,33.52253,9999999.0,33.52253,9999999.0,-3.1941247,-0.31517124,0.80445206,-3.5129483,0.00420659,-1.0662358,1.4476041,0.8071589,-0.1543274
22:12:43.697;-4.7065952E-4,-0.49240312,7.9998055,-0.040279627,0.44043815,0.24924153,-26.13475,6.2744904,8.072563,144.26942,0,0,0,0,0.0,0.0,0.0,0.0,1009.23,28.0,33.52253,9999999.0,33.52253,9999999.0,-3.201551,-0.31673062,0.81958425,-3.5222197,0.0033645649,-1.0665983,1.451568,0.8072048,-0.1268158
22:12:43.707;-3.765276E-4,-0.49352127,8.001086,-0.040279627,0.44043815,0.24924153,-26.1518,6.289192,8.05885,144.24744,0,0,0,0,0.0,0.0,0.0,0.0,1009.23,28.0,33.52253,9999999.0,33.52253,9999999.0,-3.2083838,-0.31797588,0.8256347,-3.529634,0.0026911995,-1.0670011,1.4559724,0.8096972,-0.10482788
22:12:43.717;-3.0122208E-4,-0.49441582,8.002111,-0.040279627,0.44043815,0.24924153,-26.16544,6.300954,8.04788,144.22989,0,0,0,0,0.0,0.0,0.0,0.0,1009.23,28.0,33.52253,9999999.0,33.52253,9999999.0,-3.2138453,-0.3190067,0.82768595,-3.5355637,0.0021526702,-1.0674039,1.4603769,0.81218964,-0.08728027
22:12:43.727;-2.4097766E-4,-0.5027929,8.002932,-0.3454554,0.6235436,0.432347,-26.176352,6.3103633,8.039104,144.21585,0,0,0,0,0.0,0.0,0.0,0.0,1009.29,28.0,33.020496,9999999.0,33.020496,9999999.0,-3.2676964,-0.32459643,0.8282031,-3.594945,0.0017218484,-1.0708585,1.4666123,0.81468207,-0.07324219
22:12:43.738;-1.9278213E-4,-0.50949454,8.003588,-0.3454554,0.6235436,0.432347,-26.185081,6.3178906,8.0320835,144.20465,0,0,0,0,0.0,0.0,0.0,0.0,1009.29,28.0,33.020496,9999999.0,33.020496,9999999.0,-3.310997,-0.3292366,0.8292043,-3.6424353,0.0013772935,-1.074313,1.4728478,0.81900555,-0.062042236
22:12:43.749;-1.5422571E-4,-0.51485586,8.004112,-0.3454554,0.6235436,0.432347,-26.192064,6.3239126,8.026466,144.19568,0,0,0,0,0.0,0.0,0.0,0.0,1009.29,28.0,33.020496,9999999.0,33.020496,9999999.0,-3.345715,-0.3328317,0.8311851,-3.6804187,0.001101716,-1.0784585,1.4803303,0.8241937,-0.05307007
22:12:43.757;-0.0077848257,-0.503822,8.004532,-0.28442025,0.25733268,-0.11696941,-26.16085,6.3471303,8.040373,144.13205,0,0,0,0,0.0,0.0,0.0,0.0,1009.29,28.0,33.020496,9999999.0,33.020496,9999999.0,-3.2749178,-0.27723414,0.86123335,-3.6015637,0.05561307,-1.0807339,1.482389,0.8276525,0.010559082
22:12:43.768;-0.013889306,-0.49499497,8.004868,-0.28442025,0.25733268,-0.11696941,-26.13588,6.365704,8.051498,144.08107,0,0,0,0,0.0,0.0,0.0,0.0,1009.31,28.0,32.854034,9999999.0,32.854034,9999999.0,-3.2126627,-0.23168096,0.8692894,-3.5384738,0.09922472,-1.0838625,1.4852196,0.8263658,0.061538696
22:12:43.780;-0.01877289,-0.4879333,8.0051365,-0.28442025,0.25733268,-0.11696941,-26.115904,6.3805633,8.060399,144.04022,0,0,0,0,0.0,0.0,0.0,0.0,1009.31,28.0,32.854034,9999999.0,32.854034,9999999.0,-3.1627073,-0.19525798,0.86754966,-3.4879978,0.1341155,-1.0872756,1.4883076,0.8249622,0.102386475
22:12:43.789;-0.015018312,-0.50526834,8.013013,-0.2233851,0.379403,0.06613606,-26.099922,6.392451,8.067519,144.0075,0,0,0,0,0.0,0.0,0.0,0.0,1009.31,28.0,32.854034,9999999.0,32.854034,9999999.0,-3.2669787,-0.22990063,0.862087,-3.608058,0.107173085,-1.0892861,1.4917222,0.82390946,0.13510132
22:12:43.799;-0.01201465,-0.51913637,8.019314,-0.2233851,0.379403,0.06613606,-26.087137,6.401961,8.0732155,143.98132,0,0,0,0,0.0,0.0,0.0,0.0,1009.31,28.0,32.854034,9999999.0,32.854034,9999999.0,-3.3567355,-0.25819838,0.856421,-3.7039135,0.085661985,-1.09152,1.4955163,0.82457083,0.1612854
22:12:43.810;-0.00961172,-0.53023076,8.024355,-0.2233851,0.379403,0.06613606,-26.07691,6.409569,8.077772,143.96036,0,0,0,0,0.0,0.0,0.0,0.0,1009.29,28.0,33.020496,9999999.0,33.020496,9999999.0,-3.4284918,-0.28079933,0.85134244,-3.7804737,0.068480566,-1.0939772,1.4996897,0.8252983,0.18225098
22:12:43.819;-0.0076893764,-0.53144485,8.020726,-0.2233851,0.379403,0.3102767,-26.068727,6.415655,8.081418,143.94357,0,0,0,0,0.0,0.0,0.0,0.0,1009.29,28.0,33.020496,9999999.0,33.020496,9999999.0,-3.4400146,-0.29433227,0.8470103,-3.790815,0.054808598,-1.0959877,1.5031043,0.8258935,0.19903564
22:12:43.831;-0.006151501,-0.5324161,8.017823,-0.2233851,0.379403,0.3102767,-26.062181,6.420524,8.084334,143.93015,0,0,0,0,0.0,0.0,0.0,0.0,1009.29,28.0,33.020496,9999999.0,33.020496,9999999.0,-3.4488862,-0.30495724,0.84502745,-3.7990944,0.04386234,-1.0986683,1.5076572,0.82961684,0.21246338
22:12:43.843;-0.0049212007,-0.5331931,8.015501,-0.2233851,0.379403,0.3102767,-26.056946,6.4244194,8.086668,143.91939,0,0,0,0,0.0,0.0,0.0,0.0,1009.29,28.0,33.020496,9999999.0,33.020496,9999999.0,-3.4558911,-0.313582,0.8444074,-3.805722,0.035099767,-1.1011256,1.5118306,0.83302987,0.22322083
22:12:43.852;-0.0039369604,-0.5338147,8.013643,-0.40649056,0.31836784,-0.11696941,-26.291956,6.4643354,8.309335,143.95644,0,0,0,0,0.0,0.0,0.0,0.0,1009.25,28.0,33.356064,9999999.0,33.356064,9999999.0,-3.4616885,-0.32057297,0.8217459,-3.8110266,0.02808615,-1.1051905,1.5150143,0.83613265,0.18617249
22:12:43.864;-0.0031495683,-0.534312,8.0121565,-0.40649056,0.31836784,-0.11696941,-26.479965,6.4962683,8.487468,143.9856,0,0,0,0,0.0,0.0,0.0,0.0,1009.25,28.0,33.356064,9999999.0,33.356064,9999999.0,-3.46629,-0.32602128,0.81365764,-3.8152723,0.02247298,-1.1100684,1.5188347,0.834729,0.15701294
22:12:43.873;-0.0025196546,-0.5347099,8.010967,-0.40649056,0.31836784,-0.11696941,-26.630373,6.5218143,8.629974,144.00864,0,0,0,0,0.0,0.0,0.0,0.0,1009.25,28.0,33.356064,9999999.0,33.356064,9999999.0,-3.469771,-0.3305077,0.81214654,-3.81867,0.017980982,-1.1137269,1.5217,0.8336763,0.13397217
22:12:43.883;-0.009677169,-0.53502816,8.025339,-0.28442025,0.31836784,0.12717122,-26.750698,6.5422516,8.743979,144.02689,0,0,0,0,0.0,0.0,0.0,0.0,1009.25,28.0,33.356064,9999999.0,33.356064,9999999.0,-3.4660354,-0.28424305,0.8132018,-3.8141115,0.06893573,-1.1165711,1.5248837,0.8325066,0.115722656
22:12:43.894;-0.015403181,-0.5352828,8.036837,-0.28442025,0.31836784,0.12717122,-26.846958,6.5586014,8.835183,144.04137,0,0,0,0,0.0,0.0,0.0,0.0,1009.19,28.0,33.855457,9999999.0,33.855457,9999999.0,-3.4581354,-0.24688342,0.8162497,-3.8104742,0.10956863,-1.1194153,1.5280675,0.8337783,0.101242065
22:12:43.903;-0.01998399,-0.53548646,8.046034,-0.28442025,0.31836784,0.12717122,-26.923967,6.571681,8.908147,144.05289,0,0,0,0,0.0,0.0,0.0,0.0,1009.19,28.0,33.855457,9999999.0,33.855457,9999999.0,-3.451786,-0.21706788,0.81988966,-3.8075705,0.14199153,-1.1222595,1.5312512,0.83505005,0.08972168
22:12:43.913;-0.015987191,-0.5356494,8.038069,-0.16234994,0.31836784,0.3102767,-26.985575,6.5821447,8.966517,144.06206,0,0,0,0,0.0,0.0,0.0,0.0,1009.19,28.0,33.855457,9999999.0,33.855457,9999999.0,-3.4531128,-0.24265826,0.8235204,-3.812493,0.11370521,-1.123883,1.5344349,0.8363218,0.08055115
22:12:43.923;-0.012789753,-0.5357798,8.031697,-0.16234994,0.31836784,0.3102767,-27.03486,6.5905156,9.013214,144.06935,0,0,0,0,0.0,0.0,0.0,0.0,1009.19,28.0,33.855457,9999999.0,33.855457,9999999.0,-3.4592214,-0.26367143,0.82782567,-3.816437,0.091035955,-1.1255065,1.5376186,0.83942455,0.07325745
22:12:43.933;-0.010231802,-0.5358841,8.0266,-0.16234994,0.31836784,0.3102767,-27.07429,6.5972123,9.050571,144.07518,0,0,0,0,0.0,0.0,0.0,0.0,1009.13,28.0,34.357487,9999999.0,34.357487,9999999.0,-3.4641664,-0.280511,0.83226204,-3.8195965,0.07287476,-1.12713,1.5408024,0.84252733,0.06742859
