00:53:18.713;X[m/s²],Y[m/s²],Z[m/s²],X[°/s],Y[°/s],Z[°/s],X[µT],Y[µT],Z[µT],Direção[°],R1[µsec],R2[µsec],R3[µsec],R4[µsec],R1[RPM],R2[RPM],R3[RPM],R4[RPM],Baro[hPa],Baro[°C],Baro[m],Down[cm],Abs[m],Rel[m],X [°],Y [°],Z [°],Acce X[°],Acce Y[°],Gyro X[°],Gyro Y[°],Gyro Z[°],Mag Z[°]
00:53:18.714;-0.076614454,-0.5746084,7.967903,-0.06398237,-0.033749998,-0.060464732,-29.164001,11.868,0.92,135.62776,1000,1000,1000,1000,0.0,0.0,0.0,0.0,1009.76996,24.9,29.012167,9999999.0,29.012167,99999.99,-0.08249145,0.010989532,0.0,-4.1245766,0.5494771,0.0,0.0,0.0,0.0
00:53:18.729;-0.076614454,-0.45968673,7.967903,-0.06398237,0.088320315,5.704239E-4,-29.164001,11.868,0.92,135.62776,1000,1000,1000,1000,0.0,0.0,0.0,0.0,1009.76996,24.9,29.012167,9999999.0,29.012167,9999999.0,-0.14812988,0.023500599,-0.0011851088,-3.3017135,0.5499895,-0.0012796473,0.0017664062,-0.0012092947,0.0
00:53:18.746;-0.076614454,-0.49799395,8.00621,-0.06398237,-0.094785154,5.704239E-4,-29.256,11.868,0.92,135.69069,1000,1000,1000,1000,0.0,0.0,0.0,0.0,1009.76996,24.9,29.012167,9999999.0,29.012167,9999999.0,-0.21741524,0.03239567,-0.0024104472,-3.5591042,0.54721075,-0.0023673475,1.5505857E-4,-0.0011995975,-0.062927246
00:53:18.761;-0.076614454,-0.49799395,8.00621,-0.06398237,-0.094785154,5.704239E-4,-29.256,11.868,0.92,135.69069,1000,1000,1000,1000,0.0,0.0,0.0,0.0,1009.76996,24.9,29.012167,9999999.0,29.012167,9999999.0,-0.2851268,0.041391507,-0.0036129558,-3.5591042,0.54721075,-0.0032631005,-0.0011719336,-0.0011916115,-0.062927246
00:53:18.771;-0.038307227,-0.49799395,7.967903,0.058087945,0.21039063,0.24471104,-29.256,11.868,0.92,135.69069,1000,1000,1000,1000,0.0,0.0,0.0,0.0,1009.76996,24.9,29.012167,9999999.0,29.012167,9999999.0,-0.35032392,0.048330117,-0.0047930917,-3.5762932,0.27492192,-0.0026241331,0.0011423632,-0.0011853368,-0.062927246
00:53:18.787;-0.038307227,-0.49799395,7.967903,0.058087945,0.21039063,0.24471104,-29.256,11.868,0.92,135.69069,1000,1000,1000,1000,0.0,0.0,0.0,0.0,1009.76996,24.9,29.012167,9999999.0,29.012167,9999999.0,-0.41393244,0.056160875,-0.0021187041,-3.5762932,0.27492192,-0.0016947261,0.0045086136,0.00273004,-0.062927246
00:53:18.801;-0.11492168,-0.49799395,8.00621,-0.0029472113,0.21039063,0.06160558,-29.164001,11.868,0.92,135.62776,1000,1000,1000,1000,0.0,0.0,0.0,0.0,1009.76996,24.9,29.012167,9999999.0,29.012167,9999999.0,-0.47687218,0.074339904,0.0012811054,-3.558901,0.8207849,-0.001735987,0.0074540824,0.0061559947,0.0
00:53:18.815;-0.11492168,-0.49799395,8.00621,-0.0029472113,0.21039063,0.06160558,-29.164001,11.868,0.92,135.62776,1000,1000,1000,1000,0.0,0.0,0.0,0.0,1009.76996,24.9,29.012167,9999999.0,29.012167,9999999.0,-0.5385531,0.09215535,0.0021007122,-3.558901,0.8207849,-0.001777248,0.010399551,0.007018473,0.0
00:53:18.831;-0.11492168,-0.5363012,7.967903,-0.0029472113,0.027285159,5.704239E-4,-29.164001,11.868,0.92,135.62776,1000,1000,1000,1000,0.0,0.0,0.0,0.0,1009.75,24.9,29.17863,9999999.0,29.17863,9999999.0,-0.604833,0.10722924,0.0030246736,-3.8502398,0.824459,-0.0018244034,0.010836113,0.008004162,0.0
00:53:18.845;-0.11492168,-0.5363012,7.967903,-0.0029472113,0.027285159,5.704239E-4,-29.164001,11.868,0.92,135.62776,1000,1000,1000,1000,0.0,0.0,0.0,0.0,1009.75,24.9,29.17863,9999999.0,29.17863,9999999.0,-0.6697757,0.121894695,0.0029708883,-3.8502398,0.824459,-0.0018597699,0.0111635355,0.008011008,0.0
00:53:18.859;-0.11492168,-0.5363012,7.967903,-0.0029472113,0.027285159,5.704239E-4,-29.164001,11.868,0.92,135.62776,1000,1000,1000,1000,0.0,0.0,0.0,0.0,1009.75,24.9,29.17863,9999999.0,29.17863,9999999.0,-0.73343116,0.1363738,0.0029204148,-3.8502398,0.824459,-0.0019069253,0.011600098,0.008020135,0.0
00:53:18.873;-0.076614454,-0.49799395,8.0445175,-0.308123,0.088320315,0.06160558,-29.256,11.868,0.92,135.69069,1000,1000,1000,1000,0.0,0.0,0.0,0.0,1009.70996,24.9,29.5142,9999999.0,29.5142,9999999.0,-0.7938339,0.14575037,0.0016112891,-3.542201,0.54461515,-0.0062206476,0.012836582,0.008028121,-0.062927246
00:53:18.887;-0.076614454,-0.49799395,8.0445175,-0.308123,0.088320315,0.06160558,-29.256,11.868,0.92,135.69069,1000,1000,1000,1000,0.0,0.0,0.0,0.0,1009.70996,24.9,29.5142,9999999.0,29.5142,9999999.0,-0.8527267,0.15485285,0.0011053749,-3.542201,0.54461515,-0.010226246,0.013984746,0.008828993,-0.062927246
00:53:18.901;-0.11492168,-0.5363012,8.0445175,-0.18605268,0.027285159,5.704239E-4,-29.256,11.868,0.92,135.69069,1000,1000,1000,1000,0.0,0.0,0.0,0.0,1009.70996,24.9,29.5142,9999999.0,29.5142,9999999.0,-0.9144985,0.168463,6.6995225E-4,-3.813687,0.816643,-0.012830984,0.0143667385,0.009691471,-0.062927246
00:53:18.914;-0.11492168,-0.5363012,8.0445175,-0.18605268,0.027285159,5.704239E-4,-29.256,11.868,0.92,135.69069,1000,1000,1000,1000,0.0,0.0,0.0,0.0,1009.76996,24.9,29.012167,9999999.0,29.012167,9999999.0,-0.9750349,0.18180095,-5.941643E-4,-3.813687,0.816643,-0.015435722,0.014748731,0.009699457,-0.062927246
00:53:18.932;-0.11492168,-0.5363012,8.0445175,-0.18605268,0.027285159,5.704239E-4,-29.256,11.868,0.92,135.69069,1000,1000,1000,1000,0.0,0.0,0.0,0.0,1009.76996,24.9,29.012167,9999999.0,29.012167,9999999.0,-1.0350899,0.19497909,-0.0018307625,-3.813687,0.816643,-0.01878467,0.015239864,0.009709725,-0.062927246
00:53:18.942;-0.076614454,-0.49799395,7.967903,-0.12501752,0.21039063,0.12264074,-29.256,11.868,0.92,135.69069,1000,1000,1000,1000,0.0,0.0,0.0,0.0,1009.76996,24.9,29.012167,9999999.0,29.012167,9999999.0,-1.0870141,0.20393176,-0.00304766,-3.5761695,0.5498312,-0.019909827,0.01713338,0.009714859,-0.062927246
00:53:18.956;-0.076614454,-0.49799395,7.967903,-0.12501752,0.21039063,0.12264074,-29.256,11.868,0.92,135.69069,1000,1000,1000,1000,0.0,0.0,0.0,0.0,1009.76996,24.9,29.012167,9999999.0,29.012167,9999999.0,-1.1385124,0.2137363,-0.0025626195,-3.5761695,0.5498312,-0.021660073,0.020078849,0.011431829,-0.062927246
00:53:18.971;-0.11492168,-0.49799395,8.00621,-0.36915815,0.21039063,5.704239E-4,-29.164001,11.960001,0.82799995,135.47285,1000,1000,1000,1000,0.0,0.0,0.0,0.0,1009.88,24.9,28.095299,9999999.0,28.095299,9999999.0,-1.1927086,0.22917618,0.0025097814,-3.558901,0.8207849,-0.027566604,0.0234451,0.013394081,0.15490723
00:53:18.986;-0.11492168,-0.49799395,8.00621,-0.36915815,0.21039063,5.704239E-4,-29.164001,11.960001,0.82799995,135.47285,1000,1000,1000,1000,0.0,0.0,0.0,0.0,1009.88,24.9,28.095299,9999999.0,28.095299,9999999.0,-1.2454591,0.24410109,0.0055661127,-3.558901,0.8207849,-0.033103976,0.026600959,0.013402637,0.15490723
00:53:18.998;-0.11492168,-0.45968673,7.967903,-0.06398237,0.088320315,5.704239E-4,-29.256,11.960001,0.82799995,135.53615,1000,1000,1000,1000,0.0,0.0,0.0,0.0,1009.88,24.9,28.095299,9999999.0,28.095299,9999999.0,-1.2872701,0.2566702,0.0072932136,-3.3015232,0.8249526,-0.033807784,0.027572483,0.013408911,0.09161377
00:53:19.012;-0.11492168,-0.45968673,7.967903,-0.06398237,0.088320315,5.704239E-4,-29.256,11.960001,0.82799995,135.53615,1000,1000,1000,1000,0.0,0.0,0.0,0.0,1009.70996,24.9,29.5142,9999999.0,29.5142,9999999.0,-1.3284956,0.26933417,0.008988009,-3.3015232,0.8249526,-0.03476752,0.028897287,0.0134174675,0.09161377
00:53:19.028;-0.15322891,-0.49799395,7.967903,-0.12501752,0.14935547,5.704239E-4,-29.256,11.960001,0.82799995,135.53615,1000,1000,1000,1000,0.0,0.0,0.0,0.0,1009.70996,24.9,29.5142,9999999.0,29.5142,9999999.0,-1.3753995,0.28828058,0.010649467,-3.575675,1.0995612,-0.0367678,0.031286974,0.013426594,0.09161377
00:53:19.040;-0.15322891,-0.49799395,7.967903,-0.12501752,0.14935547,5.704239E-4,-29.256,11.960001,0.82799995,135.53615,1000,1000,1000,1000,0.0,0.0,0.0,0.0,1009.70996,24.9,29.5142,9999999.0,29.5142,9999999.0,-1.4208752,0.30626258,0.01227546,-3.575675,1.0995612,-0.03826801,0.03307924,0.01343344,0.09161377
00:53:19.054;-0.076614454,-0.49799395,7.967903,-0.18605268,0.027285159,-0.060464732,-29.256,11.960001,0.82799995,135.53615,1000,1000,1000,1000,0.0,0.0,0.0,0.0,1009.69,24.9,29.680662,9999999.0,29.680662,9999999.0,-1.4665337,0.3115083,0.013870051,-3.5761695,0.5498312,-0.04087275,0.03346123,0.013441426,0.09161377
00:53:19.069;-0.076614454,-0.49799395,7.967903,-0.18605268,0.027285159,-0.060464732,-29.256,11.960001,0.82799995,135.53615,1000,1000,1000,1000,0.0,0.0,0.0,0.0,1009.69,24.9,29.680662,9999999.0,29.680662,9999999.0,-1.5114613,0.31667584,0.014536092,-3.5761695,0.5498312,-0.04366354,0.03387051,0.012534454,0.09161377
00:53:19.082;-0.076614454,-0.45968673,7.929596,-0.24708784,0.088320315,0.06160558,-29.164001,11.868,0.92,135.62776,1000,1000,1000,1000,0.0,0.0,0.0,0.0,1009.69,24.9,29.680662,9999999.0,29.680662,9999999.0,-1.5507324,0.32252026,0.013475049,-3.3176267,0.5526374,-0.04687568,0.035018675,0.011748413,0.0
00:53:19.097;-0.076614454,-0.45968673,7.929596,-0.24708784,0.088320315,0.06160558,-29.164001,11.868,0.92,135.62776,1000,1000,1000,1000,0.0,0.0,0.0,0.0,1009.70996,24.9,29.5142,9999999.0,29.5142,9999999.0,-1.5897025,0.32842088,0.01411115,-3.3176267,0.5526374,-0.050582,0.03634348,0.012672496,0.0
00:53:19.111;-0.076614454,-0.49799395,7.967903,-0.06398237,0.088320315,5.704239E-4,-29.164001,11.868,0.92,135.62776,1000,1000,1000,1000,0.0,0.0,0.0,0.0,1009.70996,24.9,29.5142,9999999.0,29.5142,9999999.0,-1.6303096,0.33406085,0.014674156,-3.5761695,0.5498312,-0.051477753,0.037579965,0.013534974,0.0
00:53:19.132;-0.076614454,-0.49799395,7.967903,-0.06398237,0.088320315,5.704239E-4,-29.164001,11.868,0.92,135.62776,1000,1000,1000,1000,0.0,0.0,0.0,0.0,1009.70996,24.9,29.5142,9999999.0,29.5142,9999999.0,-1.6705434,0.34019387,0.014392412,-3.5761695,0.5498312,-0.052821383,0.03943469,0.013546953,0.0
00:53:19.147;-0.076614454,-0.49799395,7.967903,-0.06398237,0.088320315,5.704239E-4,-29.164001,11.868,0.92,135.62776,1000,1000,1000,1000,0.0,0.0,0.0,0.0,1009.76996,24.9,29.012167,9999999.0,29.012167,9999999.0,-1.7095965,0.34568492,0.014112949,-3.5761695,0.5498312,-0.05378112,0.040759496,0.013555509,0.0
00:53:19.157;-0.076614454,-0.5363012,7.967903,-0.12501752,-0.033749998,5.704239E-4,-29.256,11.960001,0.82799995,135.53615,1000,1000,1000,1000,0.0,0.0,0.0,0.0,1009.76996,24.9,29.012167,9999999.0,29.012167,9999999.0,-1.7535166,0.34946674,0.015667995,-3.8504615,0.5496604,-0.054906275,0.040455747,0.0135606425,0.09161377
00:53:19.168;-0.076614454,-0.5363012,8.00621,-0.24708784,0.33246094,5.704239E-4,-29.256,11.960001,0.82799995,135.53615,1000,1000,1000,1000,0.0,0.0,0.0,0.0,1009.76996,24.9,29.012167,9999999.0,29.012167,9999999.0,-1.7977517,0.3570022,0.017193059,-3.832095,0.54704237,-0.057624243,0.044112816,0.013566917,0.09161377
00:53:19.183;-0.076614454,-0.5363012,8.00621,-0.24708784,0.33246094,5.704239E-4,-29.256,11.960001,0.82799995,135.53615,1000,1000,1000,1000,0.0,0.0,0.0,0.0,1009.81,24.9,28.679241,9999999.0,28.679241,9999999.0,-1.8423128,0.366016,0.018690415,-3.832095,0.54704237,-0.061577648,0.049432192,0.013576044,0.09161377
00:53:19.225;-0.076614454,-0.5363012,7.929596,-0.06398237,0.21039063,-0.12149989,-29.256,11.868,0.82799995,135.69069,1000,1000,1000,1000,0.0,0.0,0.0,0.0,1009.81,24.9,28.679241,9999999.0,28.679241,9999999.0,-1.8854802,0.37840143,0.01708154,-3.8690047,0.55230355,-0.06426491,0.0582686,0.013600001,-0.062927246
00:53:19.241;-0.076614454,-0.49799395,7.967903,-0.308123,0.27142578,0.18367589,-29.256,11.868,0.82799995,135.69069,1000,1000,1000,1000,0.0,0.0,0.0,0.0,1009.64996,24.9,30.01359,9999999.0,30.01359,9999999.0,-1.9241253,0.386086,0.013576248,-3.5761695,0.5498312,-0.069194876,0.06261141,0.011656003,-0.062927246
00:53:19.259;-0.11492168,-0.49799395,7.8912888,-0.308123,0.027285159,-0.060464732,-29.256,11.868,0.82799995,135.69069,1000,1000,1000,1000,0.0,0.0,0.0,0.0,1009.64996,24.9,30.01359,9999999.0,30.01359,9999999.0,-1.9632897,0.39549938,0.015286223,-3.6105828,0.8326894,-0.07474109,0.06310254,0.014962168,-0.062927246
00:53:19.270;-0.11492168,-0.49799395,7.8912888,-0.308123,0.027285159,-0.060464732,-29.256,11.868,0.82799995,135.69069,1000,1000,1000,1000,0.0,0.0,0.0,0.0,1009.75,24.9,29.17863,9999999.0,29.17863,9999999.0,-1.9995571,0.40453732,0.013070145,-3.6105828,0.8326894,-0.07813044,0.06340268,0.014297056,-0.062927246
00:53:19.286;-0.11492168,-0.49799395,7.929596,-0.18605268,0.027285159,5.704239E-4,-29.256,11.960001,0.82799995,135.53615,1000,1000,1000,1000,0.0,0.0,0.0,0.0,1009.75,24.9,29.17863,9999999.0,29.17863,9999999.0,-2.0341647,0.4134213,0.013752184,-3.5931897,0.82868314,-0.08092123,0.06381196,0.013390085,0.09161377
00:53:19.317;-0.11492168,-0.49799395,7.929596,-0.18605268,0.027285159,5.704239E-4,-29.256,11.960001,0.82799995,135.53615,1000,1000,1000,1000,0.0,0.0,0.0,0.0,1009.75,24.9,29.17863,9999999.0,29.17863,9999999.0,-2.0711799,0.42258218,0.015327303,-3.5931897,0.82868314,-0.08687492,0.064685084,0.013408339,0.09161377
00:53:19.335;-0.076614454,-0.49799395,7.929596,-0.06398237,0.14935547,5.704239E-4,-29.256,11.960001,0.82799995,135.53615,1000,1000,1000,1000,0.0,0.0,0.0,0.0,1009.70996,24.9,29.5142,9999999.0,29.5142,9999999.0,-2.1026902,0.42766833,0.016862534,-3.5933988,0.5524768,-0.08796262,0.06722413,0.013418036,0.09161377
00:53:19.342;-0.076614454,-0.49799395,7.929596,-0.06398237,0.14935547,5.704239E-4,-29.256,11.960001,0.82799995,135.53615,1000,1000,1000,1000,0.0,0.0,0.0,0.0,1009.70996,24.9,29.5142,9999999.0,29.5142,9999999.0,-2.133006,0.43133545,0.018362029,-3.5933988,0.5524768,-0.08847448,0.06841897,0.013422599,0.09161377
00:53:19.362;-0.076614454,-0.5363012,7.967903,-0.36915815,0.027285159,5.704239E-4,-29.256,11.868,0.92,135.69069,1000,1000,1000,1000,0.0,0.0,0.0,0.0,1009.75,24.9,29.17863,9999999.0,29.17863,9999999.0,-2.174229,0.43421,0.016746867,-3.8504615,0.5496604,-0.09548849,0.06893739,0.013433437,-0.062927246
00:53:19.370;-0.076614454,-0.5363012,7.967903,-0.36915815,0.027285159,5.704239E-4,-29.256,11.868,0.92,135.69069,1000,1000,1000,1000,0.0,0.0,0.0,0.0,1009.75,24.9,29.17863,9999999.0,29.17863,9999999.0,-2.2110095,0.43675965,0.015158418,-3.8504615,0.5496604,-0.09881091,0.069182955,0.01343857,-0.062927246
00:53:19.387;-0.11492168,-0.49799395,7.929596,-0.12501752,0.14935547,0.12264074,-29.256,11.868,0.92,135.69069,1000,1000,1000,1000,0.0,0.0,0.0,0.0,1009.75,24.9,29.17863,9999999.0,29.17863,9999999.0,-2.2407358,0.44708636,0.013606209,-3.5931897,0.82868314,-0.10093621,0.071722,0.013448267,-0.062927246
00:53:19.398;-0.11492168,-0.49799395,7.929596,-0.12501752,0.14935547,0.12264074,-29.256,11.868,0.92,135.69069,1000,1000,1000,1000,0.0,0.0,0.0,0.0,1009.76996,24.9,29.012167,9999999.0,29.012167,9999999.0,-2.2691324,0.45632833,0.013397609,-3.5931897,0.82868314,-0.1023114,0.07336491,0.014797315,-0.062927246
00:53:19.431;-0.11492168,-0.49799395,7.929596,-0.12501752,0.14935547,0.12264074,-29.256,11.868,0.92,135.69069,1000,1000,1000,1000,0.0,0.0,0.0,0.0,1009.76996,24.9,29.012167,9999999.0,29.012167,9999999.0,-2.299534,0.4684592,0.015717126,-3.5931897,0.82868314,-0.10631196,0.07814429,0.018721819,-0.062927246
00:53:19.471;-0.11492168,-0.49799395,7.929596,0.1191231,0.027285159,-0.060464732,-29.256,11.868,0.82799995,135.69069,1000,1000,1000,1000,0.0,0.0,0.0,0.0,1009.76996,24.9,29.012167,9999999.0,29.012167,9999999.0,-2.3207374,0.47673324,0.018951759,-3.5931897,0.82868314,-0.10154704,0.079235695,0.023627449,-0.062927246
00:53:19.489;-0.11492168,-0.49799395,7.967903,-0.24708784,0.088320315,5.704239E-4,-29.256,11.868,0.92,135.69069,1000,1000,1000,1000,0.0,0.0,0.0,0.0,1009.69,24.9,29.680662,9999999.0,29.680662,9999999.0,-2.3504426,0.48533738,0.016188327,-3.5759635,0.8247152,-0.10624171,0.08091378,0.02247862,-0.062927246
00:53:19.497;-0.076614454,-0.49799395,7.967903,-0.24708784,0.027285159,0.12264074,-29.256,11.868,0.92,135.69069,1000,1000,1000,1000,0.0,0.0,0.0,0.0,1009.69,24.9,29.680662,9999999.0,29.680662,9999999.0,-2.3768945,0.48684114,0.014610489,-3.5761695,0.5498312,-0.10821842,0.08113206,0.022483183,-0.062927246
00:53:19.515;-0.076614454,-0.49799395,7.967903,-0.24708784,0.027285159,0.12264074,-29.256,11.868,0.92,135.69069,1000,1000,1000,1000,0.0,0.0,0.0,0.0,1009.69,24.9,29.680662,9999999.0,29.680662,9999999.0,-2.4052389,0.48858225,0.0152231185,-3.5761695,0.5498312,-0.112665996,0.0816232,0.024690716,-0.062927246
00:53:19.528;-0.076614454,-0.45968673,8.082825,-0.24708784,-0.094785154,0.12264074,-29.164001,11.868,0.82799995,135.62776,1000,1000,1000,1000,0.0,0.0,0.0,0.0,1009.69,24.9,29.680662,9999999.0,29.680662,9999999.0,-2.4253798,0.48844695,0.0164811,-3.2548757,0.5421956,-0.115878135,0.08039099,0.026285045,0.0
00:53:19.546;-0.076614454,-0.45968673,8.082825,-0.24708784,-0.094785154,0.12264074,-29.164001,11.868,0.82799995,135.62776,1000,1000,1000,1000,0.0,0.0,0.0,0.0,1009.69,24.9,29.680662,9999999.0,29.680662,9999999.0,-2.4463282,0.48784992,0.01831486,-3.2548757,0.5421956,-0.120325714,0.07868486,0.028492577,0.0
00:53:19.556;-0.076614454,-0.49799395,7.967903,-0.24708784,0.14935547,0.12264074,-29.164001,11.868,0.82799995,135.62776,1000,1000,1000,1000,0.0,0.0,0.0,0.0,1009.70996,24.9,29.5142,9999999.0,29.5142,9999999.0,-2.4713466,0.4905532,0.019150442,-3.5761695,0.5498312,-0.122796595,0.08017842,0.029718984,0.0
00:53:19.573;-0.076614454,-0.49799395,7.967903,-0.24708784,0.14935547,0.12264074,-29.164001,11.868,0.82799995,135.62776,1000,1000,1000,1000,0.0,0.0,0.0,0.0,1009.70996,24.9,29.5142,9999999.0,29.5142,9999999.0,-2.4975595,0.49422702,0.020810628,-3.5761695,0.5498312,-0.12699708,0.08271746,0.031803876,0.0
00:53:19.586;-0.076614454,-0.49799395,7.967903,-0.18605268,0.088320315,-0.060464732,-29.164001,11.868,0.82799995,135.62776,1000,1000,1000,1000,0.0,0.0,0.0,0.0,1009.70996,24.9,29.5142,9999999.0,29.5142,9999999.0,-2.5213196,0.49637774,0.021836672,-3.5761695,0.5498312,-0.12922971,0.08377731,0.033275563,0.0
00:53:19.619;-0.076614454,-0.49799395,7.967903,-0.18605268,0.088320315,-0.060464732,-29.164001,11.868,0.82799995,135.62776,1000,1000,1000,1000,0.0,0.0,0.0,0.0,1009.70996,24.9,29.5142,9999999.0,29.5142,9999999.0,-2.548616,0.50038964,0.019385254,-3.5761695,0.5498312,-0.1355555,0.0867802,0.031219762,0.0
00:53:19.631;-0.076614454,-0.5363012,7.967903,-0.06398237,-0.033749998,-0.060464732,-29.164001,11.960001,0.92,135.47285,1000,1000,1000,1000,0.0,0.0,0.0,0.0,1009.70996,24.9,29.5142,9999999.0,29.5142,9999999.0,-2.5754051,0.5009781,0.021384625,-3.8504615,0.5496604,-0.13632329,0.0863752,0.030494185,0.15490723
00:53:19.644;-0.076614454,-0.5363012,7.967903,-0.06398237,-0.033749998,-0.060464732,-29.164001,11.960001,0.92,135.47285,1000,1000,1000,1000,0.0,0.0,0.0,0.0,1009.76996,24.9,29.012167,9999999.0,29.012167,9999999.0,-2.6017215,0.50152177,0.023284754,-3.8504615,0.5496604,-0.13715506,0.08593645,0.029708143,0.15490723
00:53:19.658;-0.076614454,-0.49799395,7.967903,-0.308123,0.027285159,-0.18253505,-29.256,11.868,0.82799995,135.69069,1000,1000,1000,1000,0.0,0.0,0.0,0.0,1009.76996,24.9,29.012167,9999999.0,29.012167,9999999.0,-2.625438,0.50286233,0.020730939,-3.5761695,0.5498312,-0.14146878,0.08631844,0.028861636,-0.062927246
00:53:19.671;-0.076614454,-0.49799395,7.967903,-0.308123,0.027285159,-0.18253505,-29.256,11.868,0.82799995,135.69069,1000,1000,1000,1000,0.0,0.0,0.0,0.0,1009.76996,24.9,29.012167,9999999.0,29.012167,9999999.0,-2.648076,0.50412256,0.016911164,-3.5761695,0.5498312,-0.14516625,0.086645864,0.026671216,-0.062927246
00:53:19.686;-0.11492168,-0.49799395,7.929596,-0.308123,0.088320315,0.12264074,-29.256,11.868,0.82799995,135.69069,1000,1000,1000,1000,0.0,0.0,0.0,0.0,1009.75,24.9,29.17863,9999999.0,29.17863,9999999.0,-2.6718097,0.5119986,0.012452248,-3.5931897,0.82868314,-0.15009622,0.088058986,0.023750655,-0.062927246
00:53:19.700;-0.11492168,-0.49799395,7.929596,-0.308123,0.088320315,0.12264074,-29.256,11.868,0.82799995,135.69069,1000,1000,1000,1000,0.0,0.0,0.0,0.0,1009.75,24.9,29.17863,9999999.0,29.17863,9999999.0,-2.6944647,0.51954406,0.012627291,-3.5931897,0.82868314,-0.15440995,0.08929547,0.025467625,-0.062927246
00:53:19.715;-0.038307227,-0.5363012,7.8912888,-0.18605268,0.45453125,5.704239E-4,-29.256,11.868,0.82799995,135.69069,1000,1000,1000,1000,0.0,0.0,0.0,0.0,1009.75,24.9,29.17863,9999999.0,29.17863,9999999.0,-2.7208853,0.52093923,0.012798833,-3.887864,0.27749258,-0.15701468,0.095658906,0.027184594,-0.062927246
00:53:19.727;-0.038307227,-0.5363012,7.8912888,-0.18605268,0.45453125,5.704239E-4,-29.256,11.868,0.82799995,135.69069,1000,1000,1000,1000,0.0,0.0,0.0,0.0,1009.70996,24.9,29.5142,9999999.0,29.5142,9999999.0,-2.7465951,0.521861,0.011291579,-3.887864,0.27749258,-0.15943336,0.10156781,0.02719201,-0.062927246
00:53:19.748;-0.076614454,-0.5363012,7.929596,-0.18605268,0.088320315,0.06160558,-29.164001,11.868,0.82799995,135.62776,1000,1000,1000,1000,0.0,0.0,0.0,0.0,1009.70996,24.9,29.5142,9999999.0,29.5142,9999999.0,-2.7728722,0.52428746,0.011077487,-3.8690047,0.55230355,-0.16334046,0.10342254,0.027203988,0.0
00:53:19.758;-0.076614454,-0.5363012,7.929596,-0.18605268,0.088320315,0.06160558,-29.164001,11.868,0.82799995,135.62776,1000,1000,1000,1000,0.0,0.0,0.0,0.0,1009.70996,24.9,29.5142,9999999.0,29.5142,9999999.0,-2.7966182,0.5257133,0.011459672,-3.8690047,0.55230355,-0.165201,0.104305744,0.027820043,0.0
00:53:19.771;-0.076614454,-0.5363012,7.929596,-0.0029472113,-0.21685547,-0.060464732,-29.164001,11.868,0.82799995,135.62776,1000,1000,1000,1000,0.0,0.0,0.0,0.0,1009.70996,24.9,29.5142,9999999.0,29.5142,9999999.0,-2.8181005,0.5236949,0.01195496,-3.8690047,0.55230355,-0.16523635,0.10170348,0.02855931,0.0
00:53:19.785;-0.076614454,-0.5363012,7.929596,-0.0029472113,-0.21685547,-0.060464732,-29.164001,11.868,0.82799995,135.62776,1000,1000,1000,1000,0.0,0.0,0.0,0.0,1009.70996,24.9,29.5142,9999999.0,29.5142,9999999.0,-2.8391616,0.5210793,0.010827029,-3.8690047,0.55230355,-0.16528057,0.098450646,0.02765234,0.0
00:53:19.800;-0.038307227,-0.5363012,7.967903,-0.18605268,0.21039063,0.12264074,-29.256,11.960001,0.82799995,135.53615,1000,1000,1000,1000,0.0,0.0,0.0,0.0,1009.70996,24.9,29.5142,9999999.0,29.5142,9999999.0,-2.8621252,0.51924723,0.011553931,-3.8505945,0.2748365,-0.16807136,0.1016065,0.02674537,0.09161377
00:53:19.813;-0.038307227,-0.5363012,7.967903,-0.18605268,0.21039063,0.12264074,-29.256,11.960001,0.82799995,135.53615,1000,1000,1000,1000,0.0,0.0,0.0,0.0,1009.75,24.9,29.17863,9999999.0,29.17863,9999999.0,-2.884265,0.5170394,0.01471757,-3.8505945,0.2748365,-0.17049004,0.10434158,0.028339699,0.09161377
00:53:19.827;-0.11492168,-0.5363012,7.967903,-0.12501752,0.21039063,0.06160558,-29.256,11.960001,0.82799995,135.53615,1000,1000,1000,1000,0.0,0.0,0.0,0.0,1009.75,24.9,29.17863,9999999.0,29.17863,9999999.0,-2.9052997,0.52607435,0.017938122,-3.8502398,0.824459,-0.17224029,0.10728705,0.030056668,0.09161377
00:53:19.841;-0.11492168,-0.5363012,7.967903,-0.12501752,0.21039063,0.06160558,-29.256,11.960001,0.82799995,135.53615,1000,1000,1000,1000,0.0,0.0,0.0,0.0,1009.75,24.9,29.17863,9999999.0,29.17863,9999999.0,-2.9259136,0.5349286,0.02025686,-3.8502398,0.824459,-0.17399053,0.11023252,0.030919146,0.09161377
00:53:19.856;-0.11492168,-0.49799395,7.929596,0.1191231,0.14935547,0.18367589,-29.164001,11.776,0.82799995,135.78299,1000,1000,1000,1000,0.0,0.0,0.0,0.0,1009.75,24.9,29.17863,9999999.0,29.17863,9999999.0,-2.9375079,0.54299927,0.017652776,-3.5931897,0.82868314,-0.17220369,0.11247285,0.03184323,-0.15522766
00:53:19.872;-0.11492168,-0.49799395,7.929596,0.1191231,0.14935547,0.18367589,-29.164001,11.776,0.82799995,135.78299,1000,1000,1000,1000,0.0,0.0,0.0,0.0,1009.69,24.9,29.680662,9999999.0,29.680662,9999999.0,-2.9487536,0.55105484,0.017075209,-3.5931897,0.82868314,-0.17029773,0.11486253,0.034782045,-0.15522766
00:53:19.885;-0.11492168,-0.49799395,7.929596,-0.06398237,-0.094785154,5.704239E-4,-29.164001,11.776,0.82799995,135.78299,1000,1000,1000,1000,0.0,0.0,0.0,0.0,1009.69,24.9,29.680662,9999999.0,29.680662,9999999.0,-2.9624574,0.55539984,0.015969185,-3.5931897,0.82868314,-0.1711295,0.113630325,0.037169833,-0.15522766
00:53:19.900;-0.11492168,-0.49799395,7.929596,-0.06398237,-0.094785154,5.704239E-4,-29.164001,11.776,0.82799995,135.78299,1000,1000,1000,1000,0.0,0.0,0.0,0.0,1009.69,24.9,29.680662,9999999.0,29.680662,9999999.0,-2.9760125,0.5594722,0.012553636,-3.5931897,0.82868314,-0.17208923,0.112208545,0.03717839,-0.15522766
00:53:19.914;-0.076614454,-0.49799395,7.967903,-0.06398237,0.088320315,-0.060464732,-29.164001,11.776,0.82799995,135.78299,1000,1000,1000,1000,0.0,0.0,0.0,0.0,1009.69,24.9,29.680662,9999999.0,29.680662,9999999.0,-2.9888935,0.5604912,0.009205839,-3.5761695,0.5498312,-0.17298499,0.11344503,0.037186377,-0.15522766
00:53:19.928;-0.076614454,-0.49799395,7.967903,-0.06398237,0.088320315,-0.060464732,-29.164001,11.776,0.82799995,135.78299,1000,1000,1000,1000,0.0,0.0,0.0,0.0,1009.69,24.9,29.680662,9999999.0,29.680662,9999999.0,-3.001517,0.5614898,0.005087596,-3.5761695,0.5498312,-0.17388074,0.11468151,0.03633987,-0.15522766
00:53:19.943;-0.076614454,-0.5363012,7.929596,-0.24708784,0.14935547,0.06160558,-29.164001,11.960001,0.92,135.47285,1000,1000,1000,1000,0.0,0.0,0.0,0.0,1009.69,24.9,29.680662,9999999.0,29.680662,9999999.0,-3.0224988,0.56350166,0.007195154,-3.8690047,0.55230355,-0.17758706,0.11692184,0.0354329,0.15490723
00:53:19.956;-0.076614454,-0.5363012,7.929596,-0.24708784,0.14935547,0.06160558,-29.164001,11.960001,0.92,135.47285,1000,1000,1000,1000,0.0,0.0,0.0,0.0,1009.70996,24.9,29.5142,9999999.0,29.5142,9999999.0,-3.0425768,0.5651805,0.010934248,-3.8690047,0.55230355,-0.1807992,0.11886346,0.036233775,0.15490723
00:53:19.970;-0.11492168,-0.45968673,8.00621,-0.06398237,0.21039063,0.06160558,-29.164001,11.960001,0.92,135.47285,1000,1000,1000,1000,0.0,0.0,0.0,0.0,1009.70996,24.9,29.5142,9999999.0,29.5142,9999999.0,-3.0483184,0.57318383,0.014658933,-3.2857642,0.821019,-0.18169495,0.12180893,0.037096255,0.15490723
00:53:19.985;-0.11492168,-0.45968673,8.00621,-0.06398237,0.21039063,0.06160558,-29.164001,11.960001,0.92,135.47285,1000,1000,1000,1000,0.0,0.0,0.0,0.0,1009.70996,24.9,29.5142,9999999.0,29.5142,9999999.0,-3.0540078,0.5812333,0.018369498,-3.2857642,0.821019,-0.1826547,0.12496479,0.03802034,0.15490723
00:53:20.006;-0.076614454,-0.45968673,7.967903,-0.24708784,0.21039063,5.704239E-4,-29.256,11.868,0.82799995,135.69069,1000,1000,1000,1000,0.0,0.0,0.0,0.0,1009.69,24.9,29.680662,9999999.0,29.680662,9999999.0,-3.064047,0.5849383,0.018011406,-3.3017135,0.5499895,-0.18784353,0.129383,0.039314058,-0.062927246
00:53:20.012;-0.076614454,-0.45968673,7.967903,-0.24708784,0.21039063,5.704239E-4,-29.256,11.868,0.82799995,135.69069,1000,1000,1000,1000,0.0,0.0,0.0,0.0,1009.69,24.9,29.680662,9999999.0,29.680662,9999999.0,-3.0702534,0.58547646,0.016395986,-3.3017135,0.5499895,-0.18932606,0.13064533,0.03931748,-0.062927246
00:53:20.027;-0.038307227,-0.5363012,8.00621,-0.0029472113,0.027285159,-0.060464732,-29.256,11.868,0.82799995,135.69069,1000,1000,1000,1000,0.0,0.0,0.0,0.0,1009.69,24.9,29.680662,9999999.0,29.680662,9999999.0,-3.085536,0.5796386,0.014817909,-3.8322263,0.2735274,-0.18937027,0.13105461,0.03932604,-0.062927246
00:53:20.041;-0.038307227,-0.5363012,8.00621,-0.0029472113,0.027285159,-0.060464732,-29.256,11.868,0.82799995,135.69069,1000,1000,1000,1000,0.0,0.0,0.0,0.0,1009.64996,24.9,30.01359,9999999.0,30.01359,9999999.0,-3.1005075,0.573864,0.0124926865,-3.8322263,0.2735274,-0.18940859,0.13140932,0.03854,-0.062927246
00:53:20.057;-0.076614454,-0.49799395,7.967903,-0.24708784,-0.15582031,-0.36564052,-29.348001,11.868,0.82799995,135.75328,1000,1000,1000,1000,0.0,0.0,0.0,0.0,1009.64996,24.9,30.01359,9999999.0,30.01359,9999999.0,-3.1141372,0.5707874,0.008725117,-3.5761695,0.5498312,-0.19360907,0.12876037,0.037512098,-0.1255188
00:53:20.074;-0.076614454,-0.49799395,7.967903,-0.24708784,-0.15582031,-0.36564052,-29.348001,11.868,0.82799995,135.75328,1000,1000,1000,1000,0.0,0.0,0.0,0.0,1009.64996,24.9,30.01359,9999999.0,30.01359,9999999.0,-3.1274943,0.5677723,-5.1330077E-5,-3.5761695,0.5498312,-0.19780956,0.12611142,0.03129621,-0.1255188
00:53:20.090;-0.076614454,-0.5363012,7.967903,-0.24708784,0.14935547,0.06160558,-29.348001,11.868,0.82799995,135.75328,1000,1000,1000,1000,0.0,0.0,0.0,0.0,1009.81,24.9,28.679241,9999999.0,28.679241,9999999.0,-3.145828,0.569752,-0.008293921,-3.8504615,0.5496604,-0.20176297,0.1285011,0.02544596,-0.1255188
00:53:20.097;-0.076614454,-0.5363012,7.967903,-0.24708784,0.14935547,0.06160558,-29.348001,11.868,0.82799995,135.75328,1000,1000,1000,1000,0.0,0.0,0.0,0.0,1009.81,24.9,28.679241,9999999.0,28.679241,9999999.0,-3.1616158,0.57037467,-0.010215802,-3.8504615,0.5496604,-0.20349258,0.1295466,0.0258772,-0.1255188
00:53:20.112;-0.038307227,-0.49799395,8.00621,-0.12501752,0.14935547,-0.30460536,-29.348001,11.868,0.82799995,135.75328,1000,1000,1000,1000,0.0,0.0,0.0,0.0,1009.81,24.9,28.679241,9999999.0,28.679241,9999999.0,-3.1714056,0.56663495,-0.011616258,-3.5592263,0.27361163,-0.20536785,0.13178693,0.026801284,-0.1255188
00:53:20.125;-0.038307227,-0.49799395,8.00621,-0.12501752,0.14935547,-0.30460536,-29.348001,11.868,0.82799995,135.75328,1000,1000,1000,1000,0.0,0.0,0.0,0.0,1009.70996,24.9,29.5142,9999999.0,29.5142,9999999.0,-3.1807547,0.5626773,-0.01777498,-3.5592263,0.27361163,-0.20699307,0.13372855,0.022841414,-0.1255188
00:53:20.139;-0.076614454,-0.49799395,7.967903,-0.12501752,-0.033749998,0.06160558,-29.348001,11.868,0.92,135.75328,1000,1000,1000,1000,0.0,0.0,0.0,0.0,1009.70996,24.9,29.5142,9999999.0,29.5142,9999999.0,-3.1903782,0.5619574,-0.02410904,-3.5761695,0.5498312,-0.20874332,0.13325605,0.018576939,-0.1255188
00:53:20.154;-0.076614454,-0.49799395,7.967903,-0.12501752,-0.033749998,0.06160558,-29.348001,11.868,0.92,135.75328,1000,1000,1000,1000,0.0,0.0,0.0,0.0,1009.70996,24.9,29.5142,9999999.0,29.5142,9999999.0,-3.1999319,0.5612188,-0.02523163,-3.5761695,0.5498312,-0.21061859,0.1327498,0.019501023,-0.1255188
00:53:20.167;-0.076614454,-0.49799395,7.967903,-0.36915815,-0.033749998,0.06160558,-29.348001,11.868,0.92,135.75328,1000,1000,1000,1000,0.0,0.0,0.0,0.0,1009.75,24.9,29.17863,9999999.0,29.17863,9999999.0,-3.2121599,0.5605611,-0.026452515,-3.5761695,0.5498312,-0.21541764,0.13231105,0.020301895,-0.1255188
00:53:20.181;-0.076614454,-0.49799395,7.967903,-0.36915815,-0.033749998,0.06160558,-29.348001,11.868,0.92,135.75328,1000,1000,1000,1000,0.0,0.0,0.0,0.0,1009.75,24.9,29.17863,9999999.0,29.17863,9999999.0,-3.224505,0.55988353,-0.02758861,-3.5761695,0.5498312,-0.22058585,0.13183855,0.021164373,-0.1255188
00:53:20.196;-0.076614454,-0.5363012,7.929596,-0.12501752,0.21039063,0.18367589,-29.072002,11.868,0.92,135.56448,1000,1000,1000,1000,0.0,0.0,0.0,0.0,1009.75,24.9,29.17863,9999999.0,29.17863,9999999.0,-3.2392325,0.5628247,-0.024865672,-3.8690047,0.55230355,-0.22246112,0.1349944,0.022088457,0.0632782
00:53:20.209;-0.076614454,-0.5363012,7.929596,-0.12501752,0.21039063,0.18367589,-29.072002,11.868,0.92,135.56448,1000,1000,1000,1000,0.0,0.0,0.0,0.0,1009.82996,24.9,28.512777,9999999.0,28.512777,9999999.0,-3.2534206,0.5652947,-0.020762766,-3.8690047,0.55230355,-0.22408634,0.13772948,0.024476243,0.0632782
00:53:20.224;-0.15322891,-0.5363012,7.967903,-0.12501752,0.088320315,5.704239E-4,-29.072002,11.868,0.92,135.56448,1000,1000,1000,1000,0.0,0.0,0.0,0.0,1009.82996,24.9,28.512777,9999999.0,28.512777,9999999.0,-3.2671883,0.5772715,-0.016381912,-3.8499293,1.0992197,-0.22596161,0.13905428,0.027231382,0.0632782
00:53:20.239;-0.15322891,-0.5363012,7.967903,-0.12501752,0.088320315,5.704239E-4,-29.072002,11.868,0.92,135.56448,1000,1000,1000,1000,0.0,0.0,0.0,0.0,1009.82996,24.9,28.512777,9999999.0,28.512777,9999999.0,-3.2806807,0.5890088,-0.014780326,-3.8499293,1.0992197,-0.22783688,0.14037909,0.02723994,0.0632782
00:53:20.253;-0.076614454,-0.5363012,7.929596,-0.06398237,0.21039063,-0.12149989,-29.164001,11.960001,1.0120001,135.47285,1000,1000,1000,1000,0.0,0.0,0.0,0.0,1009.76996,24.9,29.012167,9999999.0,29.012167,9999999.0,-3.293325,0.59116125,-0.011378752,-3.8690047,0.55230355,-0.22873263,0.14332455,0.027247924,0.15490723
00:53:20.269;-0.076614454,-0.5363012,7.929596,-0.06398237,0.21039063,-0.12149989,-29.164001,11.960001,1.0120001,135.47285,1000,1000,1000,1000,0.0,0.0,0.0,0.0,1009.76996,24.9,29.012167,9999999.0,29.012167,9999999.0,-3.305779,0.59347683,-0.009839085,-3.8690047,0.55230355,-0.22969237,0.14648041,0.025425427,0.15490723
00:53:20.281;-0.11492168,-0.45968673,7.967903,-0.308123,0.027285159,0.12264074,-29.164001,11.960001,1.0120001,135.47285,1000,1000,1000,1000,0.0,0.0,0.0,0.0,1009.76996,24.9,29.012167,9999999.0,29.012167,9999999.0,-3.3096194,0.59845394,-0.008092071,-3.3015232,0.8249526,-0.23369797,0.14683512,0.023845928,0.15490723
00:53:20.295;-0.11492168,-0.45968673,7.967903,-0.308123,0.027285159,0.12264074,-29.164001,11.960001,1.0120001,135.47285,1000,1000,1000,1000,0.0,0.0,0.0,0.0,1009.76996,24.9,29.012167,9999999.0,29.012167,9999999.0,-3.313685,0.60335827,-0.003149457,-3.3015232,0.8249526,-0.23801169,0.14721711,0.025562897,0.15490723
00:53:20.310;-0.11492168,-0.49799395,7.929596,-0.0029472113,0.33246094,-0.12149989,-29.164001,11.960001,1.0120001,135.47285,1000,1000,1000,1000,0.0,0.0,0.0,0.0,1009.76996,24.9,29.012167,9999999.0,29.012167,9999999.0,-3.3193183,0.61275196,0.0018144925,-3.5931897,0.82868314,-0.2380559,0.15220402,0.027402509,0.15490723
00:53:20.324;-0.11492168,-0.49799395,7.929596,-0.0029472113,0.33246094,-0.12149989,-29.164001,11.960001,1.0120001,135.47285,1000,1000,1000,1000,0.0,0.0,0.0,0.0,1009.76996,24.9,29.012167,9999999.0,29.012167,9999999.0,-3.3248332,0.6213062,0.0033284356,-3.5931897,0.82868314,-0.23809421,0.15652601,0.02582301,0.15490723
00:53:20.338;-0.11492168,-0.49799395,7.929596,-0.0029472113,0.33246094,-0.12149989,-29.164001,11.960001,1.0120001,135.47285,1000,1000,1000,1000,0.0,0.0,0.0,0.0,1009.82996,24.9,28.512777,9999999.0,28.512777,9999999.0,-3.3302407,0.63001513,0.00469303,-3.5931897,0.82868314,-0.23813547,0.16118047,0.02412201,0.15490723
00:53:20.352;-0.038307227,-0.49799395,8.00621,0.058087945,0.027285159,-0.12149989,-29.164001,11.868,0.92,135.62776,1000,1000,1000,1000,0.0,0.0,0.0,0.0,1009.82996,24.9,28.512777,9999999.0,28.512777,9999999.0,-3.3339665,0.6232882,0.002813121,-3.5592263,0.27361163,-0.23726416,0.16158974,0.022299513,0.0
00:53:20.366;-0.11492168,-0.49799395,7.929596,-0.0029472113,0.21039063,5.704239E-4,-29.164001,11.868,0.92,135.62776,1000,1000,1000,1000,0.0,0.0,0.0,0.0,1009.82996,24.9,28.512777,9999999.0,28.512777,9999999.0,-3.3391912,0.6302827,0.0010898801,-3.5931897,0.82868314,-0.23730542,0.16453521,0.020598514,0.0
00:53:20.382;-0.11492168,-0.49799395,7.929596,-0.0029472113,0.21039063,5.704239E-4,-29.164001,11.868,0.92,135.62776,1000,1000,1000,1000,0.0,0.0,0.0,0.0,1009.75,24.9,29.17863,9999999.0,29.17863,9999999.0,-3.3443174,0.63754964,0.0010770267,-3.5931897,0.82868314,-0.23735258,0.16790146,0.020607641,0.0
00:53:20.396;-0.076614454,-0.4213795,8.00621,-0.18605268,0.088320315,5.704239E-4,-29.164001,11.868,0.82799995,135.62776,1000,1000,1000,1000,0.0,0.0,0.0,0.0,1009.75,24.9,29.17863,9999999.0,29.17863,9999999.0,-3.3400545,0.6368741,0.0010627534,-3.01265,0.5475105,-0.23977126,0.16904962,0.020615056,0.0
00:53:20.410;-0.076614454,-0.4213795,8.00621,-0.18605268,0.088320315,5.704239E-4,-29.164001,11.868,0.82799995,135.62776,1000,1000,1000,1000,0.0,0.0,0.0,0.0,1009.75,24.9,29.17863,9999999.0,29.17863,9999999.0,-3.3362412,0.63638514,0.0010498837,-3.01265,0.5475105,-0.24256206,0.17037442,0.020623613,0.0
00:53:20.424;-0.038307227,-0.45968673,7.929596,-0.24708784,0.088320315,0.3057462,-29.164001,11.868,0.82799995,135.62776,1000,1000,1000,1000,0.0,0.0,0.0,0.0,1009.82996,24.9,28.512777,9999999.0,28.512777,9999999.0,-3.3392613,0.6303957,0.0010367123,-3.3177426,0.27632514,-0.24602129,0.1716109,0.020631598,0.0
00:53:20.438;-0.038307227,-0.45968673,7.929596,-0.24708784,0.088320315,0.3057462,-29.164001,11.868,0.82799995,135.62776,1000,1000,1000,1000,0.0,0.0,0.0,0.0,1009.82996,24.9,28.512777,9999999.0,28.512777,9999999.0,-3.342221,0.6245261,0.0052108164,-3.3177426,0.27632514,-0.24948052,0.17284739,0.024912044,0.0
00:53:20.452;-0.15322891,-0.5363012,7.967903,0.058087945,0.21039063,0.18367589,-29.256,11.776,0.92,135.84557,1000,1000,1000,1000,0.0,0.0,0.0,0.0,1009.82996,24.9,28.512777,9999999.0,28.512777,9999999.0,-3.3515782,0.63690656,0.004945363,-3.8499293,1.0992197,-0.24866728,0.17579286,0.029192492,-0.21780396
00:53:20.466;-0.15322891,-0.5363012,7.967903,0.058087945,0.21039063,0.18367589,-29.256,11.776,0.92,135.84557,1000,1000,1000,1000,0.0,0.0,0.0,0.0,1009.76996,24.9,29.012167,9999999.0,29.012167,9999999.0,-3.3607483,0.6490394,0.003010414,-3.8499293,1.0992197,-0.24785405,0.17873833,0.031763956,-0.21780396
00:53:20.481;-0.076614454,-0.5363012,7.967903,-0.36915815,0.27142578,5.704239E-4,-29.256,11.776,0.92,135.84557,1000,1000,1000,1000,0.0,0.0,0.0,0.0,1009.76996,24.9,29.012167,9999999.0,29.012167,9999999.0,-3.3759692,0.6510418,0.0012941668,-3.8504615,0.5496604,-0.2533914,0.18280971,0.034519095,-0.21780396
00:53:20.496;-0.076614454,-0.5363012,7.967903,-0.36915815,0.27142578,5.704239E-4,-29.256,11.776,0.92,135.84557,1000,1000,1000,1000,0.0,0.0,0.0,0.0,1009.76996,24.9,29.012167,9999999.0,29.012167,9999999.0,-3.3908856,0.65300417,-0.0030794065,-3.8504615,0.5496604,-0.25892878,0.1868811,0.034527652,-0.21780396
00:53:20.509;-0.076614454,-0.49799395,7.967903,-0.24708784,-0.033749998,0.18367589,-29.256,11.776,0.92,135.84557,1000,1000,1000,1000,0.0,0.0,0.0,0.0,1009.76996,24.9,29.012167,9999999.0,29.012167,9999999.0,-3.3977394,0.6505108,-0.0073666265,-3.5761695,0.5498312,-0.26214093,0.18644235,0.03453507,-0.21780396
00:53:20.523;-0.076614454,-0.49799395,7.967903,-0.24708784,-0.033749998,0.18367589,-29.256,11.776,0.92,135.84557,1000,1000,1000,1000,0.0,0.0,0.0,0.0,1009.76996,24.9,29.012167,9999999.0,29.012167,9999999.0,-3.4046981,0.6480342,-0.009055335,-3.5761695,0.5498312,-0.26560014,0.18596984,0.037106533,-0.21780396
00:53:20.537;-0.076614454,-0.49799395,7.967903,-0.06398237,0.14935547,5.704239E-4,-29.164001,11.868,0.92,135.62776,1000,1000,1000,1000,0.0,0.0,0.0,0.0,1009.76996,24.9,29.012167,9999999.0,29.012167,9999999.0,-3.4090054,0.64811933,-0.006354195,-3.5761695,0.5498312,-0.26649588,0.18806082,0.039677996,0.0
00:53:20.551;-0.076614454,-0.49799395,7.967903,-0.06398237,0.14935547,5.704239E-4,-29.164001,11.868,0.92,135.62776,1000,1000,1000,1000,0.0,0.0,0.0,0.0,1009.76996,24.9,29.012167,9999999.0,29.012167,9999999.0,-3.4132266,0.6482028,-0.006219285,-3.5761695,0.5498312,-0.26739162,0.1901518,0.039685983,0.0
00:53:20.566;-0.076614454,-0.49799395,7.967903,-0.18605268,-0.033749998,0.12264074,-29.164001,11.868,0.92,135.62776,1000,1000,1000,1000,0.0,0.0,0.0,0.0,1009.76996,24.9,29.012167,9999999.0,29.012167,9999999.0,-3.4192204,0.64573926,-0.006086514,-3.5761695,0.5498312,-0.2701824,0.18964554,0.03969454,0.0
00:53:20.581;-0.076614454,-0.49799395,7.967903,-0.18605268,-0.033749998,0.12264074,-29.164001,11.868,0.92,135.62776,1000,1000,1000,1000,0.0,0.0,0.0,0.0,1009.76996,24.9,29.012167,9999999.0,29.012167,9999999.0,-3.4250944,0.64332503,-0.0041619646,-3.5761695,0.5498312,-0.27297318,0.18913929,0.041534152,0.0
00:53:20.595;-0.038307227,-0.49799395,7.8912888,-0.12501752,0.27142578,0.12264074,-29.164001,11.868,0.82799995,135.62776,1000,1000,1000,1000,0.0,0.0,0.0,0.0,1009.76996,24.9,29.012167,9999999.0,29.012167,9999999.0,-3.4305263,0.6397341,-0.0023960944,-3.610922,0.2775805,-0.2747234,0.19293925,0.043251123,0.0
00:53:20.609;-0.038307227,-0.49799395,7.8912888,-0.12501752,0.27142578,0.12264074,-29.164001,11.868,0.82799995,135.62776,1000,1000,1000,1000,0.0,0.0,0.0,0.0,1009.76996,24.9,29.012167,9999999.0,29.012167,9999999.0,-3.4358494,0.636215,-6.6554156E-4,-3.610922,0.2775805,-0.27647364,0.19673921,0.044968095,0.0
00:53:20.624;-0.11492168,-0.49799395,7.929596,-0.06398237,0.33246094,0.06160558,-29.164001,11.868,0.82799995,135.62776,1000,1000,1000,1000,0.0,0.0,0.0,0.0,1009.76996,24.9,29.012167,9999999.0,29.012167,9999999.0,-3.4399366,0.6449516,0.0011505882,-3.5931897,0.82868314,-0.27743337,0.20172612,0.046807706,0.0
00:53:20.637;-0.11492168,-0.49799395,7.929596,-0.06398237,0.33246094,0.06160558,-29.164001,11.868,0.82799995,135.62776,1000,1000,1000,1000,0.0,0.0,0.0,0.0,1009.76996,24.9,29.012167,9999999.0,29.012167,9999999.0,-3.443817,0.6528618,0.0019124316,-3.5931897,0.82868314,-0.27826515,0.20604812,0.04760858,0.0
00:53:20.652;-0.11492168,-0.5363012,7.967903,-0.18605268,-0.15582031,-0.12149989,-29.164001,11.960001,0.92,135.47285,1000,1000,1000,1000,0.0,0.0,0.0,0.0,1009.76996,24.9,29.012167,9999999.0,29.012167,9999999.0,-3.4544978,0.65415585,0.005817553,-3.8502398,0.824459,-0.28086987,0.20386663,0.04847106,0.15490723
00:53:20.667;-0.11492168,-0.5363012,7.967903,-0.18605268,-0.15582031,-0.12149989,-29.164001,11.960001,0.92,135.47285,1000,1000,1000,1000,0.0,0.0,0.0,0.0,1009.76996,24.9,29.012167,9999999.0,29.012167,9999999.0,-3.4651475,0.65527135,0.007013296,-3.8502398,0.824459,-0.28366065,0.20152932,0.046648562,0.15490723
00:53:20.680;-0.076614454,-0.49799395,7.967903,-0.0029472113,0.14935547,0.06160558,-29.164001,11.960001,0.92,135.47285,1000,1000,1000,1000,0.0,0.0,0.0,0.0,1009.70996,24.9,29.5142,9999999.0,29.5142,9999999.0,-3.4674056,0.65506536,0.008423262,-3.5761695,0.5498312,-0.28369898,0.20347095,0.045069065,0.15490723
00:53:20.694;-0.076614454,-0.49799395,7.967903,-0.0029472113,0.14935547,0.06160558,-29.164001,11.960001,0.92,135.47285,1000,1000,1000,1000,0.0,0.0,0.0,0.0,1009.70996,24.9,29.5142,9999999.0,29.5142,9999999.0,-3.4696214,0.65500987,0.01225854,-3.5761695,0.5498312,-0.28374022,0.20556192,0.04599315,0.15490723
00:53:20.709;-0.11492168,-0.45968673,7.967903,-0.06398237,0.027285159,5.704239E-4,-29.164001,11.960001,0.92,135.47285,1000,1000,1000,1000,0.0,0.0,0.0,0.0,1009.70996,24.9,29.5142,9999999.0,29.5142,9999999.0,-3.4672,0.65880984,0.01595674,-3.3015232,0.8249526,-0.28469995,0.2059712,0.04685563,0.15490723
00:53:20.721;-0.11492168,-0.45968673,7.967903,-0.06398237,0.027285159,5.704239E-4,-29.164001,11.960001,0.92,135.47285,1000,1000,1000,1000,0.0,0.0,0.0,0.0,1009.81,24.9,28.679241,9999999.0,28.679241,9999999.0,-3.464702,0.6624803,0.018743014,-3.3015232,0.8249526,-0.28553173,0.2063259,0.046863046,0.15490723
00:53:20.737;-0.076614454,-0.5363012,7.967903,-0.06398237,0.21039063,0.18367589,-29.256,11.868,0.92,135.69069,1000,1000,1000,1000,0.0,0.0,0.0,0.0,1009.81,24.9,28.679241,9999999.0,28.679241,9999999.0,-3.4734204,0.6635228,0.017118555,-3.8504615,0.5496604,-0.28655544,0.20969215,0.046872173,-0.062927246
00:53:20.751;-0.076614454,-0.5363012,7.967903,-0.06398237,0.21039063,0.18367589,-29.256,11.868,0.92,135.69069,1000,1000,1000,1000,0.0,0.0,0.0,0.0,1009.81,24.9,28.679241,9999999.0,28.679241,9999999.0,-3.4818392,0.6641321,0.018037673,-3.8504615,0.5496604,-0.28745118,0.21263762,0.049443636,-0.062927246
00:53:20.768;-0.076614454,-0.49799395,7.929596,-0.24708784,0.088320315,-0.12149989,-29.256,11.868,0.92,135.69069,1000,1000,1000,1000,0.0,0.0,0.0,0.0,1009.88,24.9,28.095299,9999999.0,28.095299,9999999.0,-3.4879448,0.6632838,0.019298416,-3.5933988,0.5524768,-0.29140458,0.21405074,0.05238245,-0.062927246
00:53:20.784;-0.076614454,-0.49799395,7.929596,-0.24708784,0.088320315,-0.12149989,-29.256,11.868,0.92,135.69069,1000,1000,1000,1000,0.0,0.0,0.0,0.0,1009.88,24.9,28.095299,9999999.0,28.095299,9999999.0,-3.4941704,0.66253906,0.015629716,-3.5933988,0.5524768,-0.29560506,0.21555218,0.050316952,-0.062927246
00:53:20.798;-0.038307227,-0.5363012,8.00621,-0.12501752,0.14935547,-0.12149989,-29.256,11.776,0.92,135.84557,1000,1000,1000,1000,0.0,0.0,0.0,0.0,1009.88,24.9,28.095299,9999999.0,28.095299,9999999.0,-3.5026467,0.65680796,0.009294068,-3.8322263,0.2735274,-0.2973553,0.21764316,0.048615955,-0.21780396
00:53:20.811;-0.038307227,-0.5363012,8.00621,-0.12501752,0.14935547,-0.12149989,-29.256,11.776,0.92,135.84557,1000,1000,1000,1000,0.0,0.0,0.0,0.0,1009.70996,24.9,29.5142,9999999.0,29.5142,9999999.0,-3.5107083,0.65089875,0.0033232737,-3.8322263,0.2735274,-0.2988555,0.21943542,0.047157954,-0.21780396
00:53:20.825;-0.038307227,-0.5363012,7.967903,-0.24708784,0.027285159,5.704239E-4,-29.256,11.776,0.92,135.84557,1000,1000,1000,1000,0.0,0.0,0.0,0.0,1009.70996,24.9,29.5142,9999999.0,29.5142,9999999.0,-3.5208962,0.6437519,-0.0027662453,-3.8505945,0.2748365,-0.30231473,0.21981741,0.045456957,-0.21780396
00:53:20.839;-0.038307227,-0.5363012,7.967903,-0.24708784,0.027285159,5.704239E-4,-29.256,11.776,0.92,135.84557,1000,1000,1000,1000,0.0,0.0,0.0,0.0,1009.70996,24.9,29.5142,9999999.0,29.5142,9999999.0,-3.5311222,0.6367748,-0.00705861,-3.8505945,0.2748365,-0.30602103,0.22022669,0.045465514,-0.21780396
00:53:20.853;-0.11492168,-0.49799395,8.0445175,-0.12501752,-0.15582031,5.704239E-4,-29.164001,11.960001,0.92,135.47285,1000,1000,1000,1000,0.0,0.0,0.0,0.0,1009.70996,24.9,29.5142,9999999.0,29.5142,9999999.0,-3.5329325,0.638392,-0.0038120293,-3.5420008,0.81689197,-0.30764627,0.21820103,0.04547293,0.15490723
00:53:20.867;-0.11492168,-0.49799395,8.0445175,-0.12501752,-0.15582031,5.704239E-4,-29.164001,11.960001,0.92,135.47285,1000,1000,1000,1000,0.0,0.0,0.0,0.0,1009.70996,24.9,29.5142,9999999.0,29.5142,9999999.0,-3.5349514,0.63967144,-6.2926183E-4,-3.5420008,0.81689197,-0.30952153,0.21586372,0.045481488,0.15490723
00:53:20.880;-0.11492168,-0.5363012,8.00621,-0.12501752,0.088320315,5.704239E-4,-29.164001,11.960001,0.92,135.47285,1000,1000,1000,1000,0.0,0.0,0.0,0.0,1009.70996,24.9,29.5142,9999999.0,29.5142,9999999.0,-3.5424829,0.6444139,0.0024887323,-3.8318763,0.82053244,-0.31114677,0.21701188,0.045488905,0.15490723
00:53:20.895;-0.11492168,-0.5363012,8.00621,-0.12501752,0.088320315,5.704239E-4,-29.164001,11.960001,0.92,135.47285,1000,1000,1000,1000,0.0,0.0,0.0,0.0,1009.75,24.9,29.17863,9999999.0,29.17863,9999999.0,-3.5501084,0.6492346,0.005545485,-3.8318763,0.82053244,-0.31302202,0.21833669,0.045497462,0.15490723
00:53:20.910;-0.038307227,-0.49799395,7.967903,-0.24708784,0.027285159,0.06160558,-29.164001,11.960001,0.92,135.47285,1000,1000,1000,1000,0.0,0.0,0.0,0.0,1009.75,24.9,29.17863,9999999.0,29.17863,9999999.0,-3.5542643,0.64214945,0.0085411025,-3.5762932,0.27492192,-0.31672832,0.21874596,0.04550602,0.15490723
00:53:20.925;-0.038307227,-0.49799395,7.967903,-0.24708784,0.027285159,0.06160558,-29.164001,11.960001,0.92,135.47285,1000,1000,1000,1000,0.0,0.0,0.0,0.0,1009.75,24.9,29.17863,9999999.0,29.17863,9999999.0,-3.558337,0.635206,0.012374024,-3.5762932,0.27492192,-0.32043463,0.21915524,0.046430103,0.15490723
00:53:20.939;-0.038307227,-0.5363012,7.929596,-0.06398237,0.027285159,0.06160558,-29.256,11.960001,1.0120001,135.53615,1000,1000,1000,1000,0.0,0.0,0.0,0.0,1009.64996,24.9,30.01359,9999999.0,30.01359,9999999.0,-3.5654309,0.6283994,0.014804047,-3.8691397,0.27615818,-0.32133037,0.21953723,0.047292583,0.09161377
00:53:20.953;-0.038307227,-0.5363012,7.929596,-0.06398237,0.027285159,0.06160558,-29.256,11.960001,1.0120001,135.53615,1000,1000,1000,1000,0.0,0.0,0.0,0.0,1009.64996,24.9,30.01359,9999999.0,30.01359,9999999.0,-3.572383,0.6217289,0.017185466,-3.8691397,0.27615818,-0.3222261,0.21991922,0.048155062,0.09161377
00:53:20.967;-0.11492168,-0.49799395,7.967903,-0.18605268,0.027285159,-0.060464732,-29.256,11.960001,1.0120001,135.53615,1000,1000,1000,1000,0.0,0.0,0.0,0.0,1009.64996,24.9,30.01359,9999999.0,30.01359,9999999.0,-3.5750072,0.62616295,0.019519258,-3.5759635,0.8247152,-0.32483083,0.22030121,0.04901754,0.09161377
00:53:20.981;-0.11492168,-0.49799395,7.967903,-0.18605268,0.027285159,-0.060464732,-29.256,11.960001,1.0120001,135.53615,1000,1000,1000,1000,0.0,0.0,0.0,0.0,1009.69,24.9,29.680662,9999999.0,29.680662,9999999.0,-3.5775788,0.63050836,0.02013157,-3.5759635,0.8247152,-0.32743555,0.2206832,0.048171036,0.09161377
00:53:20.995;-0.076614454,-0.49799395,7.967903,0.1191231,0.21039063,5.704239E-4,-29.256,11.960001,0.82799995,135.53615,1000,1000,1000,1000,0.0,0.0,0.0,0.0,1009.69,24.9,29.680662,9999999.0,29.680662,9999999.0,-3.5759163,0.6317814,0.020731634,-3.5761695,0.5498312,-0.32576782,0.22362867,0.04732453,0.09161377
00:53:21.009;-0.076614454,-0.49799395,7.967903,0.1191231,0.21039063,5.704239E-4,-29.256,11.960001,0.82799995,135.53615,1000,1000,1000,1000,0.0,0.0,0.0,0.0,1009.69,24.9,29.680662,9999999.0,29.680662,9999999.0,-3.5742872,0.633029,0.0221571,-3.5761695,0.5498312,-0.32410008,0.22657414,0.047332518,0.09161377
00:53:21.023;-0.076614454,-0.5363012,8.00621,-0.18605268,0.21039063,-0.060464732,-29.256,11.960001,0.82799995,135.53615,1000,1000,1000,1000,0.0,0.0,0.0,0.0,1009.70996,24.9,29.5142,9999999.0,29.5142,9999999.0,-3.581996,0.63419586,0.023554055,-3.832095,0.54704237,-0.3267048,0.2295196,0.047340505,0.09161377
00:53:21.037;-0.076614454,-0.5363012,8.00621,-0.18605268,0.21039063,-0.060464732,-29.256,11.960001,0.82799995,135.53615,1000,1000,1000,1000,0.0,0.0,0.0,0.0,1009.70996,24.9,29.5142,9999999.0,29.5142,9999999.0,-3.5895505,0.6353394,0.02408567,-3.832095,0.54704237,-0.32930952,0.23246507,0.046494,0.09161377
00:53:21.052;-0.076614454,-0.5363012,7.929596,-0.18605268,-0.033749998,0.06160558,-29.164001,11.960001,0.82799995,135.47285,1000,1000,1000,1000,0.0,0.0,0.0,0.0,1009.70996,24.9,29.5142,9999999.0,29.5142,9999999.0,-3.597692,0.6332156,0.025813268,-3.8690047,0.55230355,-0.33191425,0.23199257,0.04558703,0.15490723
00:53:21.066;-0.076614454,-0.5363012,7.929596,-0.18605268,-0.033749998,0.06160558,-29.164001,11.960001,0.82799995,135.47285,1000,1000,1000,1000,0.0,0.0,0.0,0.0,1009.75,24.9,29.17863,9999999.0,29.17863,9999999.0,-3.605671,0.63113433,0.02918,-3.8690047,0.55230355,-0.33451897,0.23152007,0.046387903,0.15490723
00:53:21.080;-0.076614454,-0.5363012,7.929596,-0.18605268,-0.033749998,0.06160558,-29.164001,11.960001,0.82799995,135.47285,1000,1000,1000,1000,0.0,0.0,0.0,0.0,1009.75,24.9,29.17863,9999999.0,29.17863,9999999.0,-3.6136725,0.62906164,0.032600146,-3.8690047,0.55230355,-0.33730975,0.23101382,0.047311988,0.15490723
00:53:21.094;-0.11492168,-0.49799395,7.929596,-0.24708784,0.27142578,-0.060464732,-29.164001,11.960001,0.82799995,135.47285,1000,1000,1000,1000,0.0,0.0,0.0,0.0,1009.75,24.9,29.17863,9999999.0,29.17863,9999999.0,-3.6166527,0.63677806,0.035891514,-3.5931897,0.82868314,-0.34076896,0.23481378,0.048174467,0.15490723
00:53:21.108;-0.15322891,-0.5363012,7.929596,-0.24708784,0.27142578,0.06160558,-29.256,11.960001,0.92,135.53615,1000,1000,1000,1000,0.0,0.0,0.0,0.0,1009.76996,24.9,29.012167,9999999.0,29.012167,9999999.0,-3.624837,0.64959055,0.036235638,-3.8684647,1.1045045,-0.34398112,0.23834231,0.047388427,0.09161377
00:53:21.122;-0.15322891,-0.5363012,7.929596,-0.24708784,0.27142578,0.06160558,-29.256,11.960001,0.92,135.53615,1000,1000,1000,1000,0.0,0.0,0.0,0.0,1009.76996,24.9,29.012167,9999999.0,29.012167,9999999.0,-3.6330996,0.6624128,0.038188428,-3.8684647,1.1045045,-0.34744033,0.24214227,0.048250906,0.09161377
00:53:21.135;-0.076614454,-0.5363012,7.929596,-0.12501752,0.21039063,5.704239E-4,-29.256,11.960001,0.92,135.53615,1000,1000,1000,1000,0.0,0.0,0.0,0.0,1009.76996,24.9,29.012167,9999999.0,29.012167,9999999.0,-3.6395328,0.6630972,0.04010216,-3.8690047,0.55230355,-0.34919056,0.24508774,0.049113385,0.09161377
00:53:21.150;-0.076614454,-0.5363012,7.929596,-0.12501752,0.21039063,5.704239E-4,-29.256,11.960001,0.92,135.53615,1000,1000,1000,1000,0.0,0.0,0.0,0.0,1009.70996,24.9,29.5142,9999999.0,29.5142,9999999.0,-3.6459599,0.6639741,0.041140776,-3.8690047,0.55230355,-0.3510658,0.2482436,0.049121942,0.09161377
00:53:21.164;-0.038307227,-0.5363012,7.967903,-0.18605268,0.27142578,-0.060464732,-29.256,11.960001,0.92,135.53615,1000,1000,1000,1000,0.0,0.0,0.0,0.0,1009.70996,24.9,29.5142,9999999.0,29.5142,9999999.0,-3.6526053,0.6599153,0.04215806,-3.8505945,0.2748365,-0.35367054,0.25204358,0.04912993,0.09161377
00:53:21.178;-0.038307227,-0.5363012,7.967903,-0.18605268,0.27142578,-0.060464732,-29.256,11.960001,0.92,135.53615,1000,1000,1000,1000,0.0,0.0,0.0,0.0,1009.70996,24.9,29.5142,9999999.0,29.5142,9999999.0,-3.6591177,0.65593773,0.042317595,-3.8505945,0.2748365,-0.35627526,0.25584355,0.048283424,0.09161377
00:53:21.193;-0.076614454,-0.5363012,7.967903,-0.06398237,0.14935547,0.18367589,-29.164001,11.960001,0.82799995,135.47285,1000,1000,1000,1000,0.0,0.0,0.0,0.0,1009.82996,24.9,28.512777,9999999.0,28.512777,9999999.0,-3.663885,0.6560077,0.043680556,-3.8504615,0.5496604,-0.35723498,0.25808388,0.047376454,0.15490723
00:53:21.207;-0.076614454,-0.5363012,7.967903,-0.06398237,0.14935547,0.18367589,-29.164001,11.960001,0.82799995,135.47285,1000,1000,1000,1000,0.0,0.0,0.0,0.0,1009.82996,24.9,28.512777,9999999.0,28.512777,9999999.0,-3.6684945,0.6559299,0.048425123,-3.8504615,0.5496604,-0.35813072,0.26017487,0.049947917,0.15490723
00:53:21.221;-0.076614454,-0.45968673,8.00621,-0.24708784,0.088320315,-0.18253505,-29.164001,11.960001,0.82799995,135.47285,1000,1000,1000,1000,0.0,0.0,0.0,0.0,1009.82996,24.9,28.512777,9999999.0,28.512777,9999999.0,-3.6642334,0.65497047,0.053074796,-3.2859519,0.5473668,-0.36158994,0.26141137,0.05251938,0.15490723
00:53:21.236;-0.076614454,-0.45968673,8.00621,-0.24708784,0.088320315,-0.18253505,-29.164001,11.960001,0.82799995,135.47285,1000,1000,1000,1000,0.0,0.0,0.0,0.0,1009.76996,24.9,29.012167,9999999.0,29.012167,9999999.0,-3.6602998,0.65411675,0.05242818,-3.2859519,0.5473668,-0.36529624,0.26273617,0.049781356,0.15490723
00:53:21.251;-0.11492168,-0.49799395,7.929596,-0.308123,0.14935547,-0.060464732,-29.256,11.960001,0.92,135.53615,1000,1000,1000,1000,0.0,0.0,0.0,0.0,1009.76996,24.9,29.012167,9999999.0,29.012167,9999999.0,-3.6634867,0.6598036,0.050528623,-3.5931897,0.82868314,-0.36991808,0.2649765,0.04704333,0.09161377
00:53:21.265;-0.11492168,-0.49799395,7.929596,-0.308123,0.14935547,-0.060464732,-29.256,11.960001,0.92,135.53615,1000,1000,1000,1000,0.0,0.0,0.0,0.0,1009.76996,24.9,29.012167,9999999.0,29.012167,9999999.0,-3.6663082,0.6652304,0.050520748,-3.5931897,0.82868314,-0.37423182,0.2670675,0.046196826,0.09161377
00:53:21.279;-0.038307227,-0.49799395,7.967903,-0.49122846,0.3934961,0.18367589,-29.256,11.960001,0.92,135.53615,1000,1000,1000,1000,0.0,0.0,0.0,0.0,1009.76996,24.9,29.012167,9999999.0,29.012167,9999999.0,-3.6712475,0.66282296,0.050513033,-3.5762932,0.27492192,-0.381109,0.27257645,0.04535032,0.09161377
00:53:21.293;-0.038307227,-0.49799395,7.967903,-0.49122846,0.3934961,0.18367589,-29.256,11.960001,0.92,135.53615,1000,1000,1000,1000,0.0,0.0,0.0,0.0,1009.76996,24.9,29.012167,9999999.0,29.012167,9999999.0,-3.676088,0.6604637,0.05385508,-3.5762932,0.27492192,-0.38798618,0.2780854,0.047921784,0.09161377
00:53:21.307;-0.076614454,-0.49799395,8.00621,-0.7353691,0.33246094,0.18367589,-29.256,11.868,0.82799995,135.69069,1000,1000,1000,1000,0.0,0.0,0.0,0.0,1009.76996,24.9,29.012167,9999999.0,29.012167,9999999.0,-3.6838377,0.66276,0.05403947,-3.5591042,0.54721075,-0.39828134,0.28273988,0.050493248,-0.062927246
00:53:21.321;-0.076614454,-0.49799395,8.00621,-0.7353691,0.33246094,0.18367589,-29.256,11.868,0.82799995,135.69069,1000,1000,1000,1000,0.0,0.0,0.0,0.0,1009.75,24.9,29.17863,9999999.0,29.17863,9999999.0,-3.6914322,0.6650104,0.054220174,-3.5591042,0.54721075,-0.4085765,0.28739434,0.05306471,-0.062927246
00:53:21.335;-0.11492168,-0.5363012,7.967903,-0.67433393,0.3934961,5.704239E-4,-29.256,11.868,0.82799995,135.69069,1000,1000,1000,1000,0.0,0.0,0.0,0.0,1009.75,24.9,29.17863,9999999.0,29.17863,9999999.0,-3.7038603,0.6735981,0.054397263,-3.8502398,0.824459,-0.41801715,0.2929033,0.055636175,-0.062927246
00:53:21.349;-0.11492168,-0.5363012,7.967903,-0.67433393,0.3934961,5.704239E-4,-29.256,11.868,0.82799995,135.69069,1000,1000,1000,1000,0.0,0.0,0.0,0.0,1009.75,24.9,29.17863,9999999.0,29.17863,9999999.0,-3.7160397,0.6820141,0.0520586,-3.8502398,0.824459,-0.4274578,0.29841226,0.055644162,-0.062927246
00:53:21.363;-0.11492168,-0.45968673,8.082825,-1.4067558,0.5155664,0.18367589,-29.256,11.868,0.82799995,135.69069,1000,1000,1000,1000,0.0,0.0,0.0,0.0,1009.70996,24.9,29.5142,9999999.0,29.5142,9999999.0,-3.7261133,0.6917127,0.049766712,-3.2546933,0.8132631,-0.44715238,0.3056302,0.05565215,-0.062927246
00:53:21.377;-0.11492168,-0.45968673,8.082825,-1.4067558,0.5155664,0.18367589,-29.256,11.868,0.82799995,135.69069,1000,1000,1000,1000,0.0,0.0,0.0,0.0,1009.70996,24.9,29.5142,9999999.0,29.5142,9999999.0,-3.7359855,0.7012173,0.05003287,-3.2546933,0.8132631,-0.46684694,0.31284815,0.058223613,-0.062927246
00:53:21.391;-0.11492168,-0.5363012,8.0445175,-1.8340019,0.21039063,-0.060464732,-29.164001,11.960001,0.82799995,135.47285,1000,1000,1000,1000,0.0,0.0,0.0,0.0,1009.70996,24.9,29.5142,9999999.0,29.5142,9999999.0,-3.762702,0.7064124,0.05465039,-3.813687,0.816643,-0.49252295,0.31579363,0.060795076,0.15490723
00:53:21.405;-0.11492168,-0.5363012,8.0445175,-1.8340019,0.21039063,-0.060464732,-29.164001,11.960001,0.82799995,135.47285,1000,1000,1000,1000,0.0,0.0,0.0,0.0,1009.76996,24.9,29.012167,9999999.0,29.012167,9999999.0,-3.7888842,0.71150357,0.05582595,-3.813687,0.816643,-0.51819897,0.31873912,0.05994857,0.15490723
00:53:21.419;-0.038307227,-0.49799395,8.121132,-2.566424,0.088320315,5.704239E-4,-29.164001,11.960001,0.82799995,135.47285,1000,1000,1000,1000,0.0,0.0,0.0,0.0,1009.76996,24.9,29.012167,9999999.0,29.012167,9999999.0,-3.8184977,0.7038803,0.056978,-3.5089877,0.26975444,-0.5541289,0.3199756,0.059102066,0.15490723
00:53:21.434;-0.038307227,-0.49799395,8.121132,-2.566424,0.088320315,5.704239E-4,-29.164001,11.960001,0.82799995,135.47285,1000,1000,1000,1000,0.0,0.0,0.0,0.0,1009.76996,24.9,29.012167,9999999.0,29.012167,9999999.0,-3.8475187,0.6964095,0.058944408,-3.5089877,0.26975444,-0.5900588,0.3212121,0.059110053,0.15490723
00:53:21.448;-0.038307227,-0.4213795,8.236053,-4.519549,0.57660156,-0.060464732,-29.256,11.868,0.92,135.69069,1000,1000,1000,1000,0.0,0.0,0.0,0.0,1009.75,24.9,29.17863,9999999.0,29.17863,9999999.0,-3.891153,0.6957151,0.056514803,-2.9288268,0.26614198,-0.6533325,0.32928455,0.05911804,-0.062927246
00:53:21.462;-0.038307227,-0.4213795,8.236053,-4.519549,0.57660156,-0.060464732,-29.256,11.868,0.92,135.69069,1000,1000,1000,1000,0.0,0.0,0.0,0.0,1009.75,24.9,29.17863,9999999.0,29.17863,9999999.0,-3.938344,0.69559973,0.053237133,-2.9288268,0.26614198,-0.7211257,0.33793357,0.05821107,-0.062927246
00:53:21.476;-0.19153613,-0.2681506,8.274361,-7.1440606,-0.7051367,0.24471104,-29.256,11.868,0.92,135.69069,1000,1000,1000,1000,0.0,0.0,0.0,0.0,1009.75,24.9,29.17863,9999999.0,29.17863,9999999.0,-3.9877055,0.6992115,0.05014353,-1.8556614,1.3253589,-0.8139985,0.3287668,0.05742503,-0.062927246
00:53:21.490;-0.19153613,-0.2681506,8.274361,-7.1440606,-0.7051367,0.24471104,-29.256,11.868,0.92,135.69069,1000,1000,1000,1000,0.0,0.0,0.0,0.0,1009.75,24.9,29.17863,9999999.0,29.17863,9999999.0,-4.050082,0.7013689,0.05147937,-1.8556614,1.3253589,-0.92115945,0.31818974,0.061095696,-0.062927246
00:53:21.504;-0.15322891,-0.22984336,8.274361,-9.341326,-0.39996094,-0.18253505,-29.256,11.868,0.92,135.69069,1000,1000,1000,1000,0.0,0.0,0.0,0.0,1009.75,24.9,29.17863,9999999.0,29.17863,9999999.0,-4.129061,0.70306414,0.052548677,-1.5908678,1.0605028,-1.051938,0.3125903,0.06452165,-0.062927246
00:53:21.518;-0.15322891,-0.22984336,8.274361,-9.341326,-0.39996094,-0.18253505,-29.256,11.868,0.92,135.69069,1000,1000,1000,1000,0.0,0.0,0.0,0.0,1009.75,24.9,29.17863,9999999.0,29.17863,9999999.0,-4.206461,0.70472544,0.04773478,-1.5908678,1.0605028,-1.1827166,0.30699086,0.06196616,-0.062927246
00:53:21.532;-0.11492168,-0.61291564,8.0445175,-10.623064,-0.5830664,-0.12149989,-29.256,11.868,1.196,135.69069,1000,1000,1000,1000,0.0,0.0,0.0,0.0,1009.75,24.9,29.17863,9999999.0,29.17863,9999999.0,-4.3552113,0.6989531,0.04301716,-4.356532,0.8160905,-1.3314395,0.29882795,0.05941067,-0.062927246
00:53:21.547;-0.11492168,-0.61291564,8.0445175,-10.623064,-0.5830664,-0.12149989,-29.256,11.868,1.196,135.69069,1000,1000,1000,1000,0.0,0.0,0.0,0.0,1009.75,24.9,29.17863,9999999.0,29.17863,9999999.0,-4.511397,0.69272476,0.039112225,-4.356532,0.8160905,-1.4907855,0.29008195,0.05758817,-0.062927246
00:53:21.561;-0.076614454,-0.80445176,8.00621,-10.378923,-0.94927734,0.36678135,-29.256,11.868,1.196,135.69069,1000,1000,1000,1000,0.0,0.0,0.0,0.0,1009.75,24.9,29.17863,9999999.0,29.17863,9999999.0,-4.6783175,0.6767566,0.03540446,-5.737474,0.54552156,-1.6360904,0.27679208,0.055887174,-0.062927246
00:53:21.576;-0.076614454,-0.80445176,8.00621,-10.378923,-0.94927734,0.36678135,-29.256,11.868,1.196,135.69069,1000,1000,1000,1000,0.0,0.0,0.0,0.0,1009.75,24.9,29.17863,9999999.0,29.17863,9999999.0,-4.852071,0.6601775,0.038829513,-5.737474,0.54552156,-1.7917743,0.26255292,0.061388895,-0.062927246
00:53:21.590;-0.038307227,-0.80445176,8.121132,-11.660662,-0.7051367,0.36678135,-29.072002,11.776,1.288,135.72008,1000,1000,1000,1000,0.0,0.0,0.0,0.0,1009.75,24.9,29.17863,9999999.0,29.17863,9999999.0,-5.028154,0.64267844,0.04123885,-5.657008,0.2689449,-1.9550235,0.25268102,0.066523835,-0.092315674
00:53:21.605;-0.038307227,-0.80445176,8.121132,-11.660662,-0.7051367,0.36678135,-29.072002,11.776,1.288,135.72008,1000,1000,1000,1000,0.0,0.0,0.0,0.0,1009.75,24.9,29.17863,9999999.0,29.17863,9999999.0,-5.212143,0.6248383,0.04395945,-5.657008,0.2689449,-2.1299334,0.24210396,0.07202555,-0.092315674
00:53:21.618;-0.11492168,-0.7278373,7.967903,-11.782732,-0.827207,0.06160558,-29.072002,11.776,1.288,135.72008,1000,1000,1000,1000,0.0,0.0,0.0,0.0,1009.70996,24.9,29.5142,9999999.0,29.5142,9999999.0,-5.362386,0.6182609,0.045906745,-5.2187247,0.82289857,-2.283109,0.23135027,0.07679371,-0.092315674
00:53:21.632;-0.11492168,-0.7278373,7.967903,-11.782732,-0.827207,0.06160558,-29.072002,11.776,1.288,135.72008,1000,1000,1000,1000,0.0,0.0,0.0,0.0,1009.70996,24.9,29.5142,9999999.0,29.5142,9999999.0,-5.5211725,0.6110044,0.043987527,-5.2187247,0.82289857,-2.4480672,0.21976937,0.07765619,-0.092315674
00:53:21.646;-0.038307227,-0.80445176,7.8529816,-11.355486,-1.0103126,0.12264074,-28.980001,11.684,1.564,135.8131,1000,1000,1000,1000,0.0,0.0,0.0,0.0,1009.70996,24.9,29.5142,9999999.0,29.5142,9999999.0,-5.683523,0.59048355,0.04024635,-5.8488526,0.27803442,-2.607044,0.205625,0.07851867,-0.18533325
00:53:21.660;-0.038307227,-0.80445176,7.8529816,-11.355486,-1.0103126,0.12264074,-28.980001,11.684,1.564,135.8131,1000,1000,1000,1000,0.0,0.0,0.0,0.0,1009.76996,24.9,29.012167,9999999.0,29.012167,9999999.0,-5.842627,0.5703731,0.037417393,-5.8488526,0.27803442,-2.7660208,0.19148062,0.08023564,-0.18533325
00:53:21.675;-0.30645782,-0.9959879,8.236053,-13.003435,-1.1323829,-0.548746,-28.980001,11.684,1.564,135.8131,1000,1000,1000,1000,0.0,0.0,0.0,0.0,1009.76996,24.9,29.012167,9999999.0,29.012167,9999999.0,-6.0419936,0.58574045,0.034645017,-6.890587,2.1155543,-2.9480689,0.17562726,0.08195261,-0.18533325
00:53:21.689;-0.30645782,-0.9959879,8.236053,-13.003435,-1.1323829,-0.548746,-28.980001,11.684,1.564,135.8131,1000,1000,1000,1000,0.0,0.0,0.0,0.0,1009.76996,24.9,29.012167,9999999.0,29.012167,9999999.0,-6.2501163,0.59969074,0.02217889,-6.890587,2.1155543,-3.1431203,0.15864152,0.07372142,-0.18533325
00:53:21.704;-0.11492168,-0.9959879,8.0445175,-14.285173,-0.4609961,-0.73185146,-28.888002,11.5,1.7480001,136.06416,1000,1000,1000,1000,0.0,0.0,0.0,0.0,1009.64996,24.9,30.01359,9999999.0,30.01359,9999999.0,-6.4622493,0.59761715,0.0054784976,-7.0571337,0.81225455,-3.3431127,0.15218757,0.06603897,-0.43640137
00:53:21.719;-0.11492168,-0.9959879,8.0445175,-14.285173,-0.4609961,-0.73185146,-28.888002,11.5,1.7480001,136.06416,1000,1000,1000,1000,0.0,0.0,0.0,0.0,1009.64996,24.9,30.01359,9999999.0,30.01359,9999999.0,-6.698138,0.59468144,-0.014834523,-7.0571337,0.81225455,-3.5716755,0.14481163,0.05432935,-0.43640137
00:53:21.731;0.0,-1.1492168,7.776367,-13.613787,-0.4609961,-0.060464732,-28.888002,11.5,1.7480001,136.06416,1000,1000,1000,1000,0.0,0.0,0.0,0.0,1009.64996,24.9,30.01359,9999999.0,30.01359,9999999.0,-6.8924036,0.5773665,-0.031872425,-8.406509,-0.0,-3.735041,0.13927968,0.045547135,-0.43640137
00:53:21.746;0.0,-1.1492168,7.776367,-13.613787,-0.4609961,-0.060464732,-28.888002,11.5,1.7480001,136.06416,1000,1000,1000,1000,0.0,0.0,0.0,0.0,1009.64996,24.9,30.01359,9999999.0,30.01359,9999999.0,-7.1228085,0.5590425,-0.040851828,-8.406509,-0.0,-3.9392476,0.13236474,0.044640165,-0.43640137
00:53:21.763;-0.11492168,-1.2641385,7.776367,-13.125505,0.88177735,-1.6473788,-28.888002,11.5,1.7480001,136.06416,1000,1000,1000,1000,0.0,0.0,0.0,0.0,1009.64996,24.9,30.01359,9999999.0,30.01359,9999999.0,-7.38367,0.5792662,-0.049770154,-9.232332,0.83570534,-4.162381,0.14735495,0.043612264,-0.43640137
00:53:21.775;-0.11492168,-1.2641385,7.776367,-13.125505,0.88177735,-1.6473788,-28.888002,11.5,1.7480001,136.06416,1000,1000,1000,1000,0.0,0.0,0.0,0.0,1009.64996,24.9,30.01359,9999999.0,30.01359,9999999.0,-7.562136,0.5939005,-0.07526152,-9.232332,0.83570534,-4.3067617,0.1570545,0.025491098,-0.43640137
00:53:21.793;-0.11492168,-1.2641385,7.776367,-13.125505,0.88177735,-1.6473788,-28.888002,11.5,1.7480001,136.06416,1000,1000,1000,1000,0.0,0.0,0.0,0.0,1009.64996,24.9,30.01359,9999999.0,30.01359,9999999.0,-7.8399367,0.61515534,-0.1131585,-9.232332,0.83570534,-4.556146,0.17380826,-0.0058090966,-0.43640137
00:53:21.808;-0.11492168,-1.2641385,7.776367,-13.125505,0.88177735,-1.6473788,-28.888002,11.5,1.7480001,136.06416,1000,1000,1000,1000,0.0,0.0,0.0,0.0,1009.70996,24.9,29.5142,9999999.0,29.5142,9999999.0,-8.06073,0.6325285,-0.1438398,-9.232332,0.83570534,-4.753029,0.18703492,-0.030519778,-0.43640137
00:53:21.821;-0.22984336,-1.3024458,7.967903,-13.613787,1.4310937,-2.6239412,-28.888002,11.408,2.1160002,136.22185,1000,1000,1000,1000,0.0,0.0,0.0,0.0,1009.70996,24.9,29.5142,9999999.0,29.5142,9999999.0,-8.258551,0.6707235,-0.17383233,-9.27976,1.6306747,-4.930008,0.20563914,-0.051935703,-0.5940857
00:53:21.836;-0.11492168,-1.340753,7.929596,-14.895525,0.45453125,-3.295328,-28.703999,11.316,2.4840002,136.25525,1000,1000,1000,1000,0.0,0.0,0.0,0.0,1009.70996,24.9,29.5142,9999999.0,29.5142,9999999.0,-8.504262,0.6803646,-0.22147736,-9.595936,0.8186968,-5.153441,0.2124571,-0.09129482,-0.6274872
00:53:21.852;-0.11492168,-1.340753,7.929596,-14.895525,0.45453125,-3.295328,-28.703999,11.316,2.4840002,136.25525,1000,1000,1000,1000,0.0,0.0,0.0,0.0,1009.64996,24.9,30.01359,9999999.0,30.01359,9999999.0,-8.759657,0.6902583,-0.2812683,-9.595936,0.8186968,-5.3917694,0.2197296,-0.14402007,-0.6274872
00:53:21.866;-0.038307227,-1.4939818,7.6614456,-13.491716,0.027285159,-2.8070467,-28.703999,11.316,2.4840002,136.25525,1000,1000,1000,1000,0.0,0.0,0.0,0.0,1009.64996,24.9,30.01359,9999999.0,30.01359,9999999.0,-8.990252,0.6824511,-0.33340457,-11.034074,0.28118053,-5.5806537,0.2201116,-0.19015466,-0.6274872
00:53:21.882;-0.038307227,-1.4939818,7.6614456,-13.491716,0.027285159,-2.8070467,-28.703999,11.316,2.4840002,136.25525,1000,1000,1000,1000,0.0,0.0,0.0,0.0,1009.64996,24.9,30.01359,9999999.0,30.01359,9999999.0,-9.242678,0.6748535,-0.38330072,-11.034074,0.28118053,-5.796521,0.22054815,-0.2350674,-0.6274872
00:53:21.894;0.22984336,-1.7621324,7.6614456,-12.148943,-0.827207,0.12264074,-28.703999,11.316,2.4840002,136.25525,1000,1000,1000,1000,0.0,0.0,0.0,0.0,1009.76996,24.9,29.012167,9999999.0,29.012167,9999999.0,-9.459639,0.61813533,-0.4211953,-12.947135,-1.6746598,-5.9423084,0.21062167,-0.26875195,-0.6274872
00:53:21.908;0.22984336,-1.7621324,7.6614456,-12.148943,-0.827207,0.12264074,-28.703999,11.316,2.4840002,136.25525,1000,1000,1000,1000,0.0,0.0,0.0,0.0,1009.76996,24.9,29.012167,9999999.0,29.012167,9999999.0,-9.696072,0.5609302,-0.4236385,-12.947135,-1.6746598,-6.112394,0.19904077,-0.26703498,-0.6274872
00:53:21.924;0.11492168,-1.8387469,7.6231384,-10.562029,0.5155664,1.2823087,-28.703999,11.132,2.7600002,136.57382,1000,1000,1000,1000,0.0,0.0,0.0,0.0,1009.76996,24.9,29.012167,9999999.0,29.012167,9999999.0,-9.928602,0.54049814,-0.43228412,-13.559568,-0.8396144,-6.2708244,0.20677426,-0.26519537,-0.9460602
00:53:21.941;0.11492168,-1.8387469,7.6231384,-10.562029,0.5155664,1.2823087,-28.703999,11.132,2.7600002,136.57382,1000,1000,1000,1000,0.0,0.0,0.0,0.0,1009.70996,24.9,29.5142,9999999.0,29.5142,9999999.0,-10.187536,0.5219905,-0.41993973,-13.559568,-0.8396144,-6.460941,0.21605445,-0.24211381,-0.9460602
00:53:21.951;-0.34476504,-1.8770541,7.8912888,-9.524431,-0.39996094,0.4278165,-28.703999,11.132,2.7600002,136.57382,1000,1000,1000,1000,0.0,0.0,0.0,0.0,1009.70996,24.9,29.5142,9999999.0,29.5142,9999999.0,-10.344479,0.5563071,-0.41789553,-13.367669,2.4338036,-6.5561852,0.21205485,-0.22929072,-0.9460602
00:53:21.965;-0.34476504,-1.8770541,7.8912888,-9.524431,-0.39996094,0.4278165,-28.703999,11.132,2.7600002,136.57382,1000,1000,1000,1000,0.0,0.0,0.0,0.0,1009.70996,24.9,29.5142,9999999.0,29.5142,9999999.0,-10.535617,0.5883695,-0.42258918,-13.367669,2.4338036,-6.6895275,0.2064554,-0.22330129,-0.9460602
00:53:21.981;-0.076614454,-1.8004397,8.0445175,-10.256853,0.27142578,-0.36564052,-28.703999,11.040001,2.852,136.73363,1000,1000,1000,1000,0.0,0.0,0.0,0.0,1009.64996,24.9,30.01359,9999999.0,30.01359,9999999.0,-10.7380295,0.59150773,-0.42954654,-12.614891,0.53248507,-6.853637,0.2107982,-0.21645623,-1.1058655
00:53:21.994;-0.076614454,-1.8004397,8.0445175,-10.256853,0.27142578,-0.36564052,-28.703999,11.040001,2.852,136.73363,1000,1000,1000,1000,0.0,0.0,0.0,0.0,1009.64996,24.9,30.01359,9999999.0,30.01359,9999999.0,-10.906239,0.5937852,-0.44773117,-12.614891,0.53248507,-6.986976,0.21432674,-0.22120956,-1.1058655
00:53:22.008;-0.076614454,-1.532289,8.274361,-13.247576,0.027285159,0.06160558,-28.703999,11.040001,2.852,136.73363,1000,1000,1000,1000,0.0,0.0,0.0,0.0,1009.64996,24.9,30.01359,9999999.0,30.01359,9999999.0,-11.079691,0.5927166,-0.46591043,-10.491037,0.5216329,-7.1724424,0.21470873,-0.22632852,-1.1058655
00:53:22.022;-0.076614454,-1.532289,8.274361,-13.247576,0.027285159,0.06160558,-28.703999,11.040001,2.852,136.73363,1000,1000,1000,1000,0.0,0.0,0.0,0.0,1009.76996,24.9,29.012167,9999999.0,29.012167,9999999.0,-11.249675,0.59166926,-0.4778643,-10.491037,0.5216329,-7.3579087,0.21509072,-0.22546604,-1.1058655
00:53:22.038;-0.038307227,-1.532289,8.42759,-17.275896,-0.52203125,0.12264074,-28.428,10.856,3.22,136.87042,1000,1000,1000,1000,0.0,0.0,0.0,0.0,1009.76996,24.9,29.012167,9999999.0,29.012167,9999999.0,-11.484732,0.57728666,-0.4922546,-10.304742,0.2562328,-7.6170473,0.20726025,-0.22454196,-1.2426605
00:53:22.050;-0.038307227,-1.532289,8.42759,-17.275896,-0.52203125,0.12264074,-28.428,10.856,3.22,136.87042,1000,1000,1000,1000,0.0,0.0,0.0,0.0,1009.76996,24.9,29.012167,9999999.0,29.012167,9999999.0,-11.681227,0.5642149,-0.5057003,-10.304742,0.2562328,-7.841634,0.20047385,-0.22294763,-1.2426605
00:53:22.064;-0.038307227,-1.7238252,8.274361,-20.693865,-0.27789062,0.12264074,-28.428,10.856,3.22,136.87042,1000,1000,1000,1000,0.0,0.0,0.0,0.0,1009.70996,24.9,29.5142,9999999.0,29.5142,9999999.0,-11.946605,0.55458385,-0.5188771,-11.768167,0.25968087,-8.110654,0.19686127,-0.22135329,-1.2426605
00:53:22.080;-0.038307227,-1.7238252,8.274361,-20.693865,-0.27789062,0.12264074,-28.428,10.856,3.22,136.87042,1000,1000,1000,1000,0.0,0.0,0.0,0.0,1009.70996,24.9,29.5142,9999999.0,29.5142,9999999.0,-12.287796,0.5440561,-0.5313095,-11.768167,0.25968087,-8.46245,0.19213712,-0.2192684,-1.2426605
00:53:22.092;-0.038307227,-1.8770541,8.159439,-23.562517,-0.64410156,0.36678135,-28.428,10.856,3.22,136.87042,1000,1000,1000,1000,0.0,0.0,0.0,0.0,1009.70996,24.9,29.5142,9999999.0,29.5142,9999999.0,-12.578239,0.53084326,-0.5440942,-12.955181,0.26214525,-8.7452,0.1844079,-0.21779671,-1.2426605
00:53:22.107;-0.038307227,-1.8770541,8.159439,-23.562517,-0.64410156,0.36678135,-28.428,10.856,3.22,136.87042,1000,1000,1000,1000,0.0,0.0,0.0,0.0,1009.76996,24.9,29.012167,9999999.0,29.012167,9999999.0,-12.909056,0.5166322,-0.55303323,-12.955181,0.26214525,-9.075075,0.17539048,-0.21266177,-1.2426605
00:53:22.121;-0.038307227,-1.9536686,8.121132,-25.637712,-0.33892578,0.67195714,-28.336,10.856,3.4960003,136.80846,1000,1000,1000,1000,0.0,0.0,0.0,0.0,1009.76996,24.9,29.012167,9999999.0,29.012167,9999999.0,-13.298274,0.50657266,-0.56019473,-13.52625,0.26276478,-9.4596405,0.1703066,-0.20716006,-1.1806946
00:53:22.136;-0.038307227,-1.9536686,8.121132,-25.637712,-0.33892578,0.67195714,-28.336,10.856,3.4960003,136.80846,1000,1000,1000,1000,0.0,0.0,0.0,0.0,1009.76996,24.9,29.012167,9999999.0,29.012167,9999999.0,-13.679708,0.49671432,-0.5627269,-13.52625,0.26276478,-9.844206,0.1652227,-0.1970807,-1.1806946
00:53:22.150;-0.038307227,-2.183512,8.082825,-28.750505,-0.4609961,0.48885167,-28.336,10.856,3.4960003,136.80846,1000,1000,1000,1000,0.0,0.0,0.0,0.0,1009.76996,24.9,29.012167,9999999.0,29.012167,9999999.0,-14.10291,0.4856981,-0.565867,-15.117006,0.26214525,-10.246713,0.15876876,-0.1876733,-1.1806946
00:53:22.165;-0.038307227,-2.183512,8.082825,-28.750505,-0.4609961,0.48885167,-28.336,10.856,3.4960003,136.80846,1000,1000,1000,1000,0.0,0.0,0.0,0.0,1009.76996,24.9,29.012167,9999999.0,29.012167,9999999.0,-14.545824,0.4744504,-0.5709774,-15.117006,0.26214525,-10.67797,0.15185381,-0.18034053,-1.1806946
00:53:22.181;-0.038307227,-2.4516625,7.8912888,-30.642595,0.088320315,0.24471104,-27.876001,10.672,4.0480003,136.82237,1000,1000,1000,1000,0.0,0.0,0.0,0.0,1009.76996,24.9,29.012167,9999999.0,29.012167,9999999.0,-15.080558,0.47165847,-0.5757848,-17.258762,0.26560953,-11.168251,0.15326694,-0.17251891,-1.1946106
00:53:22.193;-0.038307227,-2.4516625,7.8912888,-30.642595,0.088320315,0.24471104,-27.876001,10.672,4.0480003,136.82237,1000,1000,1000,1000,0.0,0.0,0.0,0.0,1009.75,24.9,29.17863,9999999.0,29.17863,9999999.0,-15.454449,0.4684896,-0.5855233,-17.258762,0.26560953,-11.50532,0.15423846,-0.16982709,-1.1946106
00:53:22.208;-0.038307227,-2.6431987,7.8146744,-31.802263,-0.64410156,0.67195714,-27.876001,10.672,4.0480003,136.82237,1000,1000,1000,1000,0.0,0.0,0.0,0.0,1009.75,24.9,29.17863,9999999.0,29.17863,9999999.0,-16.017761,0.45434135,-0.59386796,-18.687143,0.26605302,-12.014155,0.14393283,-0.1659117,-1.1946106
00:53:22.222;-0.038307227,-2.6431987,7.8146744,-31.802263,-0.64410156,0.67195714,-27.876001,10.672,4.0480003,136.82237,1000,1000,1000,1000,0.0,0.0,0.0,0.0,1009.75,24.9,29.17863,9999999.0,29.17863,9999999.0,-16.507477,0.44173852,-0.59666353,-18.687143,0.26605302,-12.459387,0.13491541,-0.1565043,-1.1946106
00:53:22.237;-0.076614454,-2.7581203,7.699753,-32.47365,-0.21685547,0.18367589,-27.508,10.488001,4.6,136.90074,1000,1000,1000,1000,0.0,0.0,0.0,0.0,1009.76996,24.9,29.012167,9999999.0,29.012167,9999999.0,-17.04883,0.44044992,-0.60031205,-19.707077,0.53669673,-12.946491,0.13166258,-0.14642495,-1.2729797
00:53:22.252;-0.076614454,-2.7581203,7.699753,-32.47365,-0.21685547,0.18367589,-27.508,10.488001,4.6,136.90074,1000,1000,1000,1000,0.0,0.0,0.0,0.0,1009.76996,24.9,29.012167,9999999.0,29.012167,9999999.0,-17.579357,0.43918708,-0.6110653,-19.707077,0.53669673,-13.433596,0.12840974,-0.14366981,-1.2729797
00:53:22.265;-0.076614454,-3.1411927,7.5082164,-31.680193,-0.033749998,0.24471104,-27.508,10.488001,4.6,136.90074,1000,1000,1000,1000,0.0,0.0,0.0,0.0,1009.76996,24.9,29.012167,9999999.0,29.012167,9999999.0,-18.085411,0.44076008,-0.6219636,-22.70178,0.53933555,-13.845438,0.127971,-0.14128202,-1.2729797
00:53:22.279;-0.076614454,-3.1411927,7.5082164,-31.680193,-0.033749998,0.24471104,-27.508,10.488001,4.6,136.90074,1000,1000,1000,1000,0.0,0.0,0.0,0.0,1009.75,24.9,29.17863,9999999.0,29.17863,9999999.0,-18.61239,0.44226855,-0.6316265,-22.70178,0.53933555,-14.28896,0.1274985,-0.13785607,-1.2729797
00:53:22.300;-0.11492168,-3.4476504,7.240066,-29.238787,-0.5830664,0.48885167,-27.508,10.488001,4.6,136.90074,1000,1000,1000,1000,0.0,0.0,0.0,0.0,1009.75,24.9,29.17863,9999999.0,29.17863,9999999.0,-19.322433,0.4384162,-0.63965726,-25.460543,0.8210564,-14.873736,0.115837164,-0.13296184,-1.2729797
00:53:22.307;-0.11492168,-3.4476504,7.240066,-29.238787,-0.5830664,0.48885167,-27.508,10.488001,4.6,136.90074,1000,1000,1000,1000,0.0,0.0,0.0,0.0,1009.75,24.9,29.17863,9999999.0,29.17863,9999999.0,-19.674427,0.44149774,-0.6484911,-25.460543,0.8210564,-15.107647,0.11117263,-0.12905103,-1.2729797
00:53:22.321;0.038307227,-3.4476504,7.3549876,-27.896013,0.33246094,0.24471104,-27.232,10.212001,5.152,137.21509,1000,1000,1000,1000,0.0,0.0,0.0,0.0,1009.75,24.9,29.17863,9999999.0,29.17863,9999999.0,-20.165964,0.43182516,-0.6605607,-25.114536,-0.270201,-15.498191,0.11582708,-0.122207105,-1.587326
00:53:22.335;0.038307227,-3.4476504,7.3549876,-27.896013,0.33246094,0.24471104,-27.232,10.212001,5.152,137.21509,1000,1000,1000,1000,0.0,0.0,0.0,0.0,1009.75,24.9,29.17863,9999999.0,29.17863,9999999.0,-20.64767,0.42234603,-0.6757386,-25.114536,-0.270201,-15.888735,0.120481536,-0.11878115,-1.587326
00:53:22.349;-0.22984336,-3.9073372,7.2783732,-26.370134,0.14935547,-0.060464732,-27.232,10.212001,5.152,137.21509,1000,1000,1000,1000,0.0,0.0,0.0,0.0,1009.70996,24.9,29.5142,9999999.0,29.5142,9999999.0,-21.160854,0.447823,-0.6906129,-28.216879,1.5937371,-16.257917,0.12257251,-0.11535519,-1.587326
00:53:22.363;-0.22984336,-3.9073372,7.2783732,-26.370134,0.14935547,-0.060464732,-27.232,10.212001,5.152,137.21509,1000,1000,1000,1000,0.0,0.0,0.0,0.0,1009.70996,24.9,29.5142,9999999.0,29.5142,9999999.0,-21.663773,0.47279042,-0.70937675,-28.216879,1.5937371,-16.6271,0.12466349,-0.1162017,-1.587326
00:53:22.377;0.0,-3.9839516,7.0485296,-23.928728,-0.15582031,5.704239E-4,-26.864,10.212001,5.704,136.95749,1000,1000,1000,1000,0.0,0.0,0.0,0.0,1009.70996,24.9,29.5142,9999999.0,29.5142,9999999.0,-22.148317,0.46119678,-0.72261333,-29.47589,-0.0,-16.962103,0.122482,-0.117048204,-1.3297272
00:53:22.391;0.0,-3.9839516,7.0485296,-23.928728,-0.15582031,5.704239E-4,-26.864,10.212001,5.704,136.95749,1000,1000,1000,1000,0.0,0.0,0.0,0.0,1009.85,24.9,28.346313,9999999.0,28.346313,9999999.0,-22.623173,0.449835,-0.73474777,-29.47589,-0.0,-17.297106,0.12030052,-0.11704022,-1.3297272
00:53:22.405;-0.038307227,-4.1371803,7.086837,-20.51076,-0.5830664,0.4278165,-26.864,10.212001,5.704,136.95749,1000,1000,1000,1000,0.0,0.0,0.0,0.0,1009.85,24.9,28.346313,9999999.0,28.346313,9999999.0,-23.057625,0.43818793,-0.7466395,-30.275326,0.26746392,-17.584257,0.112137586,-0.11703223,-1.3297272
00:53:22.420;-0.038307227,-4.1371803,7.086837,-20.51076,-0.5830664,0.4278165,-26.864,10.212001,5.704,136.95749,1000,1000,1000,1000,0.0,0.0,0.0,0.0,1009.85,24.9,28.346313,9999999.0,28.346313,9999999.0,-23.503487,0.4262024,-0.7520123,-30.275326,0.26746392,-17.891918,0.10339159,-0.110614985,-1.3297272
00:53:22.434;-0.038307227,-4.175488,7.0485296,-17.642107,0.27142578,-0.30460536,-26.588001,10.12,5.9800005,136.93317,1000,1000,1000,1000,0.0,0.0,0.0,0.0,1009.85,24.9,28.346313,9999999.0,28.346313,9999999.0,-23.871012,0.42649448,-0.7576298,-30.641762,0.26790798,-18.121265,0.10692012,-0.10505337,-1.3054047
00:53:22.447;-0.038307227,-4.175488,7.0485296,-17.642107,0.27142578,-0.30460536,-26.588001,10.12,5.9800005,136.93317,1000,1000,1000,1000,0.0,0.0,0.0,0.0,1009.64996,24.9,30.01359,9999999.0,30.01359,9999999.0,-24.248478,0.42704675,-0.7727645,-30.641762,0.26790798,-18.368256,0.11072008,-0.10931785,-1.3054047
00:53:22.462;-0.076614454,-4.098873,7.2783732,-16.360369,-0.094785154,0.06160558,-26.588001,10.12,5.9800005,136.93317,1000,1000,1000,1000,0.0,0.0,0.0,0.0,1009.64996,24.9,30.01359,9999999.0,30.01359,9999999.0,-24.575674,0.4277153,-0.7875965,-29.385021,0.5254964,-18.597301,0.10939309,-0.11358232,-1.3054047
00:53:22.477;-0.076614454,-4.098873,7.2783732,-16.360369,-0.094785154,0.06160558,-26.588001,10.12,5.9800005,136.93317,1000,1000,1000,1000,0.0,0.0,0.0,0.0,1009.64996,24.9,30.01359,9999999.0,30.01359,9999999.0,-24.912357,0.42827758,-0.7970471,-29.385021,0.5254964,-18.842707,0.10797131,-0.11265824,-1.3054047
00:53:22.499;0.0,-4.2521024,7.3166804,-16.421404,0.21039063,-0.18253505,-26.588001,10.12,5.9800005,136.93317,1000,1000,1000,1000,0.0,0.0,0.0,0.0,1009.70996,24.9,29.5142,9999999.0,29.5142,9999999.0,-25.387512,0.42445424,-0.80582565,-30.163092,-0.0,-19.2204,0.1128103,-0.11124131,-1.3054047
00:53:22.504;0.0,-4.2521024,7.3166804,-16.421404,0.21039063,-0.18253505,-26.588001,10.12,5.9800005,136.93317,1000,1000,1000,1000,0.0,0.0,0.0,0.0,1009.70996,24.9,29.5142,9999999.0,29.5142,9999999.0,-25.56349,0.4169961,-0.81671166,-30.163092,-0.0,-19.302507,0.113862254,-0.112153985,-1.3054047
00:53:22.518;0.0,-4.175488,7.469909,-17.825212,-0.52203125,0.36678135,-26.312,10.028,6.256,136.90834,1000,1000,1000,1000,0.0,0.0,0.0,0.0,1009.70996,24.9,29.5142,9999999.0,29.5142,9999999.0,-25.880865,0.40149394,-0.82849336,-29.204073,-0.0,-19.552061,0.106553815,-0.114709474,-1.2805786
00:53:22.534;0.0,-4.175488,7.469909,-17.825212,-0.52203125,0.36678135,-26.312,10.028,6.256,136.90834,1000,1000,1000,1000,0.0,0.0,0.0,0.0,1009.76996,24.9,29.012167,9999999.0,29.012167,9999999.0,-26.22683,0.3852786,-0.8317839,-29.204073,-0.0,-19.837265,0.09820131,-0.10884097,-1.2805786
00:53:22.547;-0.038307227,-4.213795,7.5465236,-20.51076,-0.21685547,0.5498868,-26.312,10.028,6.256,136.90834,1000,1000,1000,1000,0.0,0.0,0.0,0.0,1009.76996,24.9,29.012167,9999999.0,29.012167,9999999.0,-26.547152,0.379889,-0.836087,-29.177614,0.25393498,-20.103905,0.09538219,-0.10407282,-1.2805786
00:53:22.562;-0.038307227,-4.213795,7.5465236,-20.51076,-0.21685547,0.5498868,-26.312,10.028,6.256,136.90834,1000,1000,1000,1000,0.0,0.0,0.0,0.0,1009.76996,24.9,29.012167,9999999.0,29.012167,9999999.0,-26.901268,0.37418216,-0.83689344,-29.177614,0.25393498,-20.411566,0.09212936,-0.09582452,-1.2805786
00:53:22.576;-0.11492168,-4.4436383,7.3166804,-21.670427,-0.64410156,0.18367589,-25.944,9.936001,6.532,136.81535,1000,1000,1000,1000,0.0,0.0,0.0,0.0,1009.75,24.9,29.17863,9999999.0,29.17863,9999999.0,-27.28593,0.3732443,-0.83636296,-31.268423,0.7691421,-20.714952,0.083111934,-0.0881261,-1.1875916
00:53:22.591;-0.11492168,-4.4436383,7.3166804,-21.670427,-0.64410156,0.18367589,-25.944,9.936001,6.532,136.81535,1000,1000,1000,1000,0.0,0.0,0.0,0.0,1009.75,24.9,29.17863,9999999.0,29.17863,9999999.0,-27.684135,0.37169394,-0.84068745,-31.268423,0.7691421,-21.040009,0.07345041,-0.085370965,-1.1875916
00:53:22.604;-0.038307227,-4.6351743,7.1251445,-21.548357,-0.033749998,5.704239E-4,-25.944,9.936001,6.532,136.81535,1000,1000,1000,1000,0.0,0.0,0.0,0.0,1009.75,24.9,29.17863,9999999.0,29.17863,9999999.0,-28.065882,0.3689943,-0.84528553,-33.045135,0.2582105,-21.320137,0.07301166,-0.08298318,-1.1875916
00:53:22.618;-0.038307227,-4.6351743,7.1251445,-21.548357,-0.033749998,5.704239E-4,-25.944,9.936001,6.532,136.81535,1000,1000,1000,1000,0.0,0.0,0.0,0.0,1009.82996,24.9,28.512777,9999999.0,28.512777,9999999.0,-28.461111,0.36631557,-0.8521238,-33.045135,0.2582105,-21.621815,0.07253916,-0.082975194,-1.1875916
00:53:22.632;-0.038307227,-4.7500963,7.086837,-21.426287,0.21039063,-0.30460536,-25.76,9.844,6.8999996,136.85713,1000,1000,1000,1000,0.0,0.0,0.0,0.0,1009.82996,24.9,28.512777,9999999.0,28.512777,9999999.0,-28.862507,0.36702105,-0.8596609,-33.832386,0.25726134,-21.921783,0.075484626,-0.08296721,-1.2293701
00:53:22.646;-0.038307227,-4.7500963,7.086837,-21.426287,0.21039063,-0.30460536,-25.76,9.844,6.8999996,136.85713,1000,1000,1000,1000,0.0,0.0,0.0,0.0,1009.82996,24.9,28.512777,9999999.0,28.512777,9999999.0,-29.255875,0.36771244,-0.8712343,-33.832386,0.25726134,-22.221752,0.078430094,-0.08723168,-1.2293701
00:53:22.660;-0.038307227,-4.711789,7.2783732,-22.52492,0.027285159,-0.48771083,-25.76,9.844,6.8999996,136.85713,1000,1000,1000,1000,0.0,0.0,0.0,0.0,1009.76996,24.9,29.012167,9999999.0,29.012167,9999999.0,-29.638147,0.36579537,-0.8825762,-32.917385,0.25314063,-22.537102,0.078812085,-0.091496155,-1.2293701
00:53:22.674;-0.038307227,-4.711789,7.2783732,-22.52492,0.027285159,-0.48771083,-25.76,9.844,6.8999996,136.85713,1000,1000,1000,1000,0.0,0.0,0.0,0.0,1009.76996,24.9,29.012167,9999999.0,29.012167,9999999.0,-30.012774,0.36391667,-0.8962035,-32.917385,0.25314063,-22.852451,0.07919408,-0.098324105,-1.2293701
00:53:22.688;-0.038307227,-4.865018,7.1251445,-23.623552,-0.033749998,-0.42667568,-25.76,9.844,6.8999996,136.85713,1000,1000,1000,1000,0.0,0.0,0.0,0.0,1009.76996,24.9,29.012167,9999999.0,29.012167,9999999.0,-30.423128,0.36126322,-0.90955824,-34.324707,0.2543951,-23.183182,0.078721575,-0.105152056,-1.2293701
00:53:22.702;-0.038307227,-4.865018,7.1251445,-23.623552,-0.033749998,-0.42667568,-25.76,9.844,6.8999996,136.85713,1000,1000,1000,1000,0.0,0.0,0.0,0.0,1009.75,24.9,29.17863,9999999.0,29.17863,9999999.0,-30.825275,0.35866284,-0.9218085,-34.324707,0.2543951,-23.513912,0.078249075,-0.111125514,-1.2293701
00:53:22.716;-0.038307227,-5.056554,6.933608,-23.440447,0.027285159,-0.60978115,-25.484001,9.752,7.2680006,136.83072,1000,1000,1000,1000,0.0,0.0,0.0,0.0,1009.75,24.9,29.17863,9999999.0,29.17863,9999999.0,-31.252417,0.35697916,-0.9332854,-36.102173,0.2557601,-23.84208,0.078631066,-0.11709897,-1.2029572
00:53:22.730;-0.038307227,-5.056554,6.933608,-23.440447,0.027285159,-0.60978115,-25.484001,9.752,7.2680006,136.83072,1000,1000,1000,1000,0.0,0.0,0.0,0.0,1009.75,24.9,29.17863,9999999.0,29.17863,9999999.0,-31.671015,0.35532916,-0.947045,-36.102173,0.2557601,-24.170246,0.07901306,-0.1256359,-1.2029572
00:53:22.744;-0.076614454,-5.133168,6.8186865,-22.64699,0.088320315,-0.548746,-25.484001,9.752,7.2680006,136.83072,1000,1000,1000,1000,0.0,0.0,0.0,0.0,1009.76996,24.9,29.012167,9999999.0,29.012167,9999999.0,-32.08773,0.35972053,-0.96052945,-36.971024,0.5143101,-24.487305,0.08024954,-0.13417284,-1.2029572
00:53:22.759;-0.076614454,-5.133168,6.8186865,-22.64699,0.088320315,-0.548746,-25.484001,9.752,7.2680006,136.83072,1000,1000,1000,1000,0.0,0.0,0.0,0.0,1009.76996,24.9,29.012167,9999999.0,29.012167,9999999.0,-32.518307,0.36411062,-0.9734445,-36.971024,0.5143101,-24.82701,0.08157434,-0.14240403,-1.2029572
00:53:22.773;-0.076614454,-5.056554,7.0102224,-22.52492,-0.52203125,0.12264074,-25.208,9.752,7.5440006,136.62161,1000,1000,1000,1000,0.0,0.0,0.0,0.0,1009.76996,24.9,29.012167,9999999.0,29.012167,9999999.0,-32.87094,0.36033452,-0.9808437,-35.80172,0.50784004,-25.119833,0.07478794,-0.14953773,-0.9938507
00:53:22.786;-0.076614454,-5.056554,7.0102224,-22.52492,-0.52203125,0.12264074,-25.208,9.752,7.5440006,136.62161,1000,1000,1000,1000,0.0,0.0,0.0,0.0,1009.69,24.9,29.680662,9999999.0,29.680662,9999999.0,-33.238598,0.35612234,-0.97942126,-35.80172,0.50784004,-25.435183,0.0674795,-0.14782076,-0.9938507
00:53:22.801;0.038307227,-5.171476,7.201759,-25.271502,0.6986719,0.18367589,-25.208,9.752,7.5440006,136.62161,1000,1000,1000,1000,0.0,0.0,0.0,0.0,1009.69,24.9,29.680662,9999999.0,29.680662,9999999.0,-33.658943,0.3543194,-0.977907,-35.681183,-0.24755013,-25.814255,0.077959575,-0.14598115,-0.9938507
00:53:22.815;0.038307227,-5.171476,7.201759,-25.271502,0.6986719,0.18367589,-25.208,9.752,7.5440006,136.62161,1000,1000,1000,1000,0.0,0.0,0.0,0.0,1009.69,24.9,29.680662,9999999.0,29.680662,9999999.0,-34.021347,0.3511831,-0.97588587,-35.681183,-0.24755013,-26.142784,0.08704231,-0.14359336,-0.9938507
00:53:22.829;-0.49799395,-5.3247046,6.933608,-27.163591,-0.64410156,-0.24357021,-24.748001,9.568,7.912,136.63377,1000,1000,1000,1000,0.0,0.0,0.0,0.0,1009.70996,24.9,29.5142,9999999.0,29.5142,9999999.0,-34.489254,0.39989638,-0.9737883,-37.45149,3.2602663,-26.550238,0.077380784,-0.14083822,-1.006012
00:53:22.843;-0.49799395,-5.3247046,6.933608,-27.163591,-0.64410156,-0.24357021,-24.748001,9.568,7.912,136.63377,1000,1000,1000,1000,0.0,0.0,0.0,0.0,1009.70996,24.9,29.5142,9999999.0,29.5142,9999999.0,-34.92118,0.44826669,-0.97777456,-37.45149,3.2602663,-26.930529,0.06836336,-0.1442482,-1.006012
00:53:22.857;0.2681506,-5.554548,6.7803793,-27.102556,-0.33892578,0.48885167,-24.748001,9.568,7.912,136.63377,1000,1000,1000,1000,0.0,0.0,0.0,0.0,1009.70996,24.9,29.5142,9999999.0,29.5142,9999999.0,-35.380657,0.3996052,-0.98168105,-39.302696,-1.7523075,-27.309965,0.0636184,-0.14765818,-1.006012
00:53:22.872;0.2681506,-5.554548,6.7803793,-27.102556,-0.33892578,0.48885167,-24.748001,9.568,7.912,136.63377,1000,1000,1000,1000,0.0,0.0,0.0,0.0,1009.81,24.9,28.679241,9999999.0,28.679241,9999999.0,-35.857506,0.3515848,-0.9749815,-39.302696,-1.7523075,-27.716503,0.058534514,-0.14032541,-1.006012
00:53:22.887;-0.11492168,-5.707777,6.588843,-27.468767,-0.5830664,1.2823087,-24.748001,9.568,7.912,136.63377,1000,1000,1000,1000,0.0,0.0,0.0,0.0,1009.81,24.9,28.679241,9999999.0,28.679241,9999999.0,-36.362095,0.35108793,-0.9684159,-40.89739,0.7552952,-28.128534,0.04978852,-0.13299264,-1.006012
00:53:22.902;-0.11492168,-5.707777,6.588843,-27.468767,-0.5830664,1.2823087,-24.748001,9.568,7.912,136.63377,1000,1000,1000,1000,0.0,0.0,0.0,0.0,1009.81,24.9,28.679241,9999999.0,28.679241,9999999.0,-36.856594,0.350601,-0.95031786,-40.89739,0.7552952,-28.540565,0.04104252,-0.11375801,-1.006012
00:53:22.916;-0.038307227,-5.861006,6.588843,-27.834978,-1.0713477,1.2212735,-24.38,9.476,8.188001,136.53107,1000,1000,1000,1000,0.0,0.0,0.0,0.0,1009.75,24.9,29.17863,9999999.0,29.17863,9999999.0,-37.33443,0.33386788,-0.93178433,-41.65373,0.24889183,-28.930256,0.026043653,-0.09580569,-0.90330505
00:53:22.930;-0.038307227,-5.861006,6.588843,-27.834978,-1.0713477,1.2212735,-24.38,9.476,8.188001,136.53107,1000,1000,1000,1000,0.0,0.0,0.0,0.0,1009.75,24.9,29.17863,9999999.0,29.17863,9999999.0,-37.80271,0.31746945,-0.9144589,-41.65373,0.24889183,-29.319946,0.011044785,-0.07870786,-0.90330505
00:53:22.945;-0.038307227,-5.9759274,6.5122285,-28.93361,-1.3765235,0.8550626,-24.38,9.476,8.188001,136.53107,1000,1000,1000,1000,0.0,0.0,0.0,0.0,1009.75,24.9,29.17863,9999999.0,29.17863,9999999.0,-38.322792,0.29585165,-0.8962831,-42.540462,0.24832316,-29.75395,-0.009603066,-0.06038876,-0.90330505
00:53:22.958;-0.038307227,-5.9759274,6.5122285,-28.93361,-1.3765235,0.8550626,-24.38,9.476,8.188001,136.53107,1000,1000,1000,1000,0.0,0.0,0.0,0.0,1009.82996,24.9,28.512777,9999999.0,28.512777,9999999.0,-38.775757,0.27736416,-0.88553005,-42.540462,0.24832316,-30.130087,-0.027497873,-0.049272947,-0.90330505
00:53:22.972;0.0,-6.205771,6.3206925,-28.750505,-1.2544532,1.0381681,-23.920002,9.476,8.556,136.15994,1000,1000,1000,1000,0.0,0.0,0.0,0.0,1009.82996,24.9,28.512777,9999999.0,28.512777,9999999.0,-39.284187,0.25460577,-0.8667316,-44.474365,-0.0,-30.532595,-0.045060217,-0.03730207,-0.5321808
00:53:22.987;0.0,-6.205771,6.3206925,-28.750505,-1.2544532,1.0381681,-23.920002,9.476,8.556,136.15994,1000,1000,1000,1000,0.0,0.0,0.0,0.0,1009.82996,24.9,28.512777,9999999.0,28.512777,9999999.0,-39.810627,0.2310732,-0.8447795,-44.474365,-0.0,-30.963852,-0.06387702,-0.021729548,-0.5321808
00:53:23.000;-0.038307227,-6.397307,6.0525417,-28.262224,-0.5830664,0.3057462,-23.920002,9.476,8.556,136.15994,1000,1000,1000,1000,0.0,0.0,0.0,0.0,1009.69,24.9,29.680662,9999999.0,29.680662,9999999.0,-40.30619,0.2240079,-0.8253013,-46.585674,0.24922125,-31.33126,-0.07145688,-0.008233362,-0.5321808
00:53:23.014;-0.038307227,-6.397307,6.0525417,-28.262224,-0.5830664,0.3057462,-23.920002,9.476,8.556,136.15994,1000,1000,1000,1000,0.0,0.0,0.0,0.0,1009.69,24.9,29.680662,9999999.0,29.680662,9999999.0,-40.81954,0.2165125,-0.815244,-46.585674,0.24922125,-31.726933,-0.07961981,-0.003952915,-0.5321808
00:53:23.028;0.0,-6.4739213,6.090849,-27.468767,-0.15582031,0.18367589,-23.552,9.384001,8.924,136.04694,1000,1000,1000,1000,0.0,0.0,0.0,0.0,1009.69,24.9,29.680662,9999999.0,29.680662,9999999.0,-41.314945,0.2100444,-0.80312777,-46.74628,-0.0,-32.111496,-0.081801295,3.2753218E-4,-0.4191742
00:53:23.042;0.0,-6.4739213,6.090849,-27.468767,-0.15582031,0.18367589,-23.552,9.384001,8.924,136.04694,1000,1000,1000,1000,0.0,0.0,0.0,0.0,1009.70996,24.9,29.5142,9999999.0,29.5142,9999999.0,-41.800446,0.20370565,-0.79292864,-46.74628,-0.0,-32.49606,-0.08398278,0.0028989946,-0.4191742
00:53:23.056;-0.038307227,-6.5122285,6.2823853,-28.93361,-0.39996094,0.48885167,-23.552,9.384001,8.924,136.04694,1000,1000,1000,1000,0.0,0.0,0.0,0.0,1009.70996,24.9,29.5142,9999999.0,29.5142,9999999.0,-42.28198,0.19899528,-0.7829335,-46.02862,0.24255963,-32.90113,-0.089582235,0.005470457,-0.4191742
00:53:23.070;-0.038307227,-6.5122285,6.2823853,-28.93361,-0.39996094,0.48885167,-23.552,9.384001,8.924,136.04694,1000,1000,1000,1000,0.0,0.0,0.0,0.0,1009.70996,24.9,29.5142,9999999.0,29.5142,9999999.0,-42.75388,0.1943791,-0.76895124,-46.02862,0.24255963,-33.306202,-0.09518169,0.012314381,-0.4191742
00:53:23.087;0.0,-6.742072,5.93762,-30.093279,-0.5830664,0.79402745,-23.552,9.384001,8.924,136.04694,1000,1000,1000,1000,0.0,0.0,0.0,0.0,1009.76996,24.9,29.012167,9999999.0,29.012167,9999999.0,-43.37276,0.18077764,-0.7538114,-48.630215,-0.0,-33.817787,-0.10509382,0.020624861,-0.4191742
00:53:23.099;0.0,-6.742072,5.93762,-30.093279,-0.5830664,0.79402745,-23.552,9.384001,8.924,136.04694,1000,1000,1000,1000,0.0,0.0,0.0,0.0,1009.76996,24.9,29.012167,9999999.0,29.012167,9999999.0,-43.802315,0.17087664,-0.73855907,-48.630215,-0.0,-34.14881,-0.11150755,0.029359162,-0.4191742
00:53:23.113;-0.076614454,-6.895301,5.631162,-28.68947,-0.5830664,0.5498868,-23.0,9.384001,9.2,135.57567,1000,1000,1000,1000,0.0,0.0,0.0,0.0,1009.76996,24.9,29.012167,9999999.0,29.012167,9999999.0,-44.36321,0.16874942,-0.71107376,-50.760036,0.4930703,-34.579155,-0.12025355,0.041269574,0.052093506
00:53:23.127;-0.076614454,-6.895301,5.631162,-28.68947,-0.5830664,0.5498868,-23.0,9.384001,9.2,135.57567,1000,1000,1000,1000,0.0,0.0,0.0,0.0,1009.82996,24.9,28.512777,9999999.0,28.512777,9999999.0,-44.85665,0.16780756,-0.68880486,-50.760036,0.4930703,-34.952118,-0.12783341,0.048418105,0.052093506
00:53:23.141;-0.038307227,-7.0102224,5.707777,-28.506365,-0.33892578,5.704239E-4,-23.0,9.384001,9.2,135.57567,1000,1000,1000,1000,0.0,0.0,0.0,0.0,1009.82996,24.9,28.512777,9999999.0,28.512777,9999999.0,-45.36756,0.164325,-0.6659035,-50.846622,0.24279036,-35.351208,-0.1329173,0.056666408,0.052093506
00:53:23.155;-0.038307227,-7.0102224,5.707777,-28.506365,-0.33892578,5.704239E-4,-23.0,9.384001,9.2,135.57567,1000,1000,1000,1000,0.0,0.0,0.0,0.0,1009.82996,24.9,28.512777,9999999.0,28.512777,9999999.0,-45.896187,0.16124424,-0.65153575,-50.846622,0.24279036,-35.778805,-0.13766226,0.056674395,0.052093506
00:53:23.169;0.0,-7.1634517,5.4779334,-28.018084,-0.33892578,-0.18253505,-22.632,9.292001,9.476,135.4496,1000,1000,1000,1000,0.0,0.0,0.0,0.0,1009.75,24.9,29.17863,9999999.0,29.17863,9999999.0,-46.414562,0.1533693,-0.634934,-52.594643,-0.0,-36.17106,-0.14240722,0.05668238,0.17816162
00:53:23.183;0.0,-7.1634517,5.4779334,-28.018084,-0.33892578,-0.18253505,-22.632,9.292001,9.476,135.4496,1000,1000,1000,1000,0.0,0.0,0.0,0.0,1009.75,24.9,29.17863,9999999.0,29.17863,9999999.0,-46.922573,0.14565185,-0.6211765,-52.594643,-0.0,-36.563313,-0.14715219,0.054126892,0.17816162
00:53:23.197;-0.076614454,-7.3549876,5.209783,-26.492205,-0.27789062,-0.30460536,-22.632,9.292001,9.476,135.4496,1000,1000,1000,1000,0.0,0.0,0.0,0.0,1009.75,24.9,29.17863,9999999.0,29.17863,9999999.0,-47.44131,0.14866649,-0.6076941,-54.685863,0.487017,-36.934204,-0.15104266,0.051571403,0.17816162
00:53:23.212;-0.076614454,-7.3549876,5.209783,-26.492205,-0.27789062,-0.30460536,-22.632,9.292001,9.476,135.4496,1000,1000,1000,1000,0.0,0.0,0.0,0.0,1009.75,24.9,29.17863,9999999.0,29.17863,9999999.0,-47.97564,0.1513485,-0.5964547,-54.685863,0.487017,-37.33159,-0.15521102,0.047002323,0.17816162
00:53:23.227;0.076614454,-7.3549876,5.2863975,-25.454607,-0.15582031,0.18367589,-22.172,9.2,9.752,135.23573,1000,1000,1000,1000,0.0,0.0,0.0,0.0,1009.75,24.9,29.17863,9999999.0,29.17863,9999999.0,-48.47612,0.1363385,-0.5811627,-54.290455,-0.48462442,-37.71341,-0.15754832,0.042433243,0.3920288
00:53:23.241;0.076614454,-7.3549876,5.2863975,-25.454607,-0.15582031,0.18367589,-22.172,9.2,9.752,135.23573,1000,1000,1000,1000,0.0,0.0,0.0,0.0,1009.75,24.9,29.17863,9999999.0,29.17863,9999999.0,-48.941643,0.12178141,-0.5591788,-54.290455,-0.48462442,-38.069775,-0.15972981,0.045004707,0.3920288
00:53:23.255;-0.038307227,-7.431602,5.209783,-24.66115,-0.33892578,0.5498868,-22.172,9.2,9.752,135.23573,1000,1000,1000,1000,0.0,0.0,0.0,0.0,1009.82996,24.9,28.512777,9999999.0,28.512777,9999999.0,-49.400513,0.11953237,-0.5376347,-54.96763,0.24183257,-38.41503,-0.16447477,0.04757617,0.3920288
00:53:23.269;-0.038307227,-7.431602,5.209783,-24.66115,-0.33892578,0.5498868,-22.172,9.2,9.752,135.23573,1000,1000,1000,1000,0.0,0.0,0.0,0.0,1009.82996,24.9,28.512777,9999999.0,28.512777,9999999.0,-49.850204,0.11732831,-0.51149696,-54.96763,0.24183257,-38.76029,-0.16921973,0.055274587,0.3920288
00:53:23.283;0.0,-7.5848308,5.094861,-23.623552,-0.15582031,0.24471104,-22.172,9.2,9.752,135.23573,1000,1000,1000,1000,0.0,0.0,0.0,0.0,1009.82996,24.9,28.512777,9999999.0,28.512777,9999999.0,-50.29952,0.112843886,-0.485882,-56.110065,-0.0,-39.09102,-0.17140122,0.062973,0.3920288
00:53:23.297;0.0,-7.5848308,5.094861,-23.623552,-0.15582031,0.24471104,-22.172,9.2,9.752,135.23573,1000,1000,1000,1000,0.0,0.0,0.0,0.0,1009.76996,24.9,29.012167,9999999.0,29.012167,9999999.0,-50.739845,0.10844915,-0.4649664,-56.110065,-0.0,-39.42175,-0.1735827,0.066398956,0.3920288
00:53:23.311;-0.038307227,-7.73806,5.0182467,-22.036638,-0.8882422,0.36678135,-21.712,9.2,10.028,134.80736,1000,1000,1000,1000,0.0,0.0,0.0,0.0,1009.76996,24.9,29.012167,9999999.0,29.012167,9999999.0,-51.1681,0.098853044,-0.43590158,-57.035233,0.23797822,-39.730263,-0.1860181,0.06982491,0.82040405
00:53:23.325;-0.038307227,-7.73806,5.0182467,-22.036638,-0.8882422,0.36678135,-21.712,9.2,10.028,134.80736,1000,1000,1000,1000,0.0,0.0,0.0,0.0,1009.76996,24.9,29.012167,9999999.0,29.012167,9999999.0,-51.587788,0.08944886,-0.40574327,-57.035233,0.23797822,-40.038776,-0.19845349,0.07495985,0.82040405
00:53:23.339;-0.038307227,-7.8529816,4.9416323,-20.693865,-0.5830664,0.12264074,-21.712,9.2,10.028,134.80736,1000,1000,1000,1000,0.0,0.0,0.0,0.0,1009.70996,24.9,29.5142,9999999.0,29.5142,9999999.0,-51.99632,0.08439125,-0.37618813,-57.818317,0.23655216,-40.32849,-0.20661642,0.08009479,0.82040405
00:53:23.353;-0.038307227,-7.8529816,4.9416323,-20.693865,-0.5830664,0.12264074,-21.712,9.2,10.028,134.80736,1000,1000,1000,1000,0.0,0.0,0.0,0.0,1009.70996,24.9,29.5142,9999999.0,29.5142,9999999.0,-52.39668,0.07943479,-0.3505737,-57.818317,0.23655216,-40.618206,-0.21477935,0.08181176,0.82040405
00:53:23.367;0.0,-7.967903,4.865018,-18.98488,-0.15582031,0.3057462,-21.252,9.108,10.212001,134.57254,1000,1000,1000,1000,0.0,0.0,0.0,0.0,1009.70996,24.9,29.5142,9999999.0,29.5142,9999999.0,-52.78107,0.07570824,-0.32077515,-58.592724,-0.0,-40.883995,-0.21696083,0.083528735,1.0552216
00:53:23.381;0.0,-7.967903,4.865018,-18.98488,-0.15582031,0.3057462,-21.252,9.108,10.212001,134.57254,1000,1000,1000,1000,0.0,0.0,0.0,0.0,1009.76996,24.9,29.012167,9999999.0,29.012167,9999999.0,-53.157776,0.07205622,-0.2890604,-58.592724,-0.0,-41.149784,-0.21914232,0.08780918,1.0552216
00:53:23.396;-0.038307227,-8.0445175,4.7500963,-17.275896,-0.39996094,0.67195714,-21.252,9.108,10.212001,134.57254,1000,1000,1000,1000,0.0,0.0,0.0,0.0,1009.76996,24.9,29.012167,9999999.0,29.012167,9999999.0,-53.537346,0.06943438,-0.25768036,-59.438343,0.23493586,-41.408924,-0.22514173,0.09239537,1.0552216
00:53:23.410;-0.038307227,-8.0445175,4.7500963,-17.275896,-0.39996094,0.67195714,-21.252,9.108,10.212001,134.57254,1000,1000,1000,1000,0.0,0.0,0.0,0.0,1009.76996,24.9,29.012167,9999999.0,29.012167,9999999.0,-53.87546,0.06764891,-0.2228616,-59.438343,0.23493586,-41.63351,-0.23034123,0.10113081,1.0552216
00:53:23.423;-0.038307227,-8.00621,4.7884035,-16.055193,-0.64410156,0.610922,-21.068,9.108,10.396,134.39162,1000,1000,1000,1000,0.0,0.0,0.0,0.0,1009.76996,24.9,29.012167,9999999.0,29.012167,9999999.0,-54.200554,0.062164303,-0.18446225,-59.116135,0.23527235,-41.858284,-0.23935865,0.110538214,1.236145
00:53:23.438;-0.038307227,-8.00621,4.7884035,-16.055193,-0.64410156,0.610922,-21.068,9.108,10.396,134.39162,1000,1000,1000,1000,0.0,0.0,0.0,0.0,1009.76996,24.9,29.012167,9999999.0,29.012167,9999999.0,-54.53488,0.05615817,-0.14706959,-59.116135,0.23527235,-42.099113,-0.24902017,0.11970204,1.236145
00:53:23.452;-0.038307227,-8.0445175,4.7884035,-15.200701,-0.64410156,0.5498868,-21.068,9.108,10.396,134.39162,1000,1000,1000,1000,0.0,0.0,0.0,0.0,1009.76996,24.9,29.012167,9999999.0,29.012167,9999999.0,-54.837467,0.05088684,-0.11102347,-59.236473,0.23444563,-42.311924,-0.2580376,0.12825495,1.236145
00:53:23.466;-0.038307227,-8.0445175,4.7884035,-15.200701,-0.64410156,0.5498868,-21.068,9.108,10.396,134.39162,1000,1000,1000,1000,0.0,0.0,0.0,0.0,1009.64996,24.9,30.01359,9999999.0,30.01359,9999999.0,-55.119102,0.046352156,-0.07707457,-59.236473,0.23444563,-42.509533,-0.26641092,0.13540348,1.236145
00:53:23.480;-0.038307227,-8.121132,4.673482,-14.102068,-0.033749998,5.704239E-4,-21.068,9.108,10.396,134.39162,1000,1000,1000,1000,0.0,0.0,0.0,0.0,1009.64996,24.9,30.01359,9999999.0,30.01359,9999999.0,-55.42562,0.04961386,-0.042726874,-60.079956,0.23424374,-42.721066,-0.26691717,0.14365178,1.236145
00:53:23.494;-0.038307227,-8.121132,4.673482,-14.102068,-0.033749998,5.704239E-4,-21.068,9.108,10.396,134.39162,1000,1000,1000,1000,0.0,0.0,0.0,0.0,1009.64996,24.9,30.01359,9999999.0,30.01359,9999999.0,-55.71219,0.052843403,-0.017141635,-60.079956,0.23424374,-42.918495,-0.26738966,0.14365977,1.236145
00:53:23.508;-0.038307227,-8.274361,4.55856,-12.881365,-0.52203125,0.12264074,-20.792,9.016001,10.396,134.32822,1000,1000,1000,1000,0.0,0.0,0.0,0.0,1009.82996,24.9,28.512777,9999999.0,28.512777,9999999.0,-55.997627,0.049270887,0.009199904,-61.147636,0.23233134,-43.098835,-0.27469808,0.14366776,1.2995453
00:53:23.522;-0.038307227,-8.274361,4.55856,-12.881365,-0.52203125,0.12264074,-20.792,9.016001,10.396,134.32822,1000,1000,1000,1000,0.0,0.0,0.0,0.0,1009.82996,24.9,28.512777,9999999.0,28.512777,9999999.0,-56.27736,0.04576982,0.03668942,-61.147636,0.23233134,-43.279175,-0.2820065,0.14538473,1.2995453
00:53:23.536;0.038307227,-8.236053,4.673482,-12.576189,-0.27789062,0.67195714,-20.792,9.016001,10.396,134.32822,1000,1000,1000,1000,0.0,0.0,0.0,0.0,1009.82996,24.9,28.512777,9999999.0,28.512777,9999999.0,-56.532894,0.036406256,0.06362914,-60.42678,-0.23177558,-43.455242,-0.28589696,0.1471017,1.2995453
00:53:23.551;0.038307227,-8.236053,4.673482,-12.576189,-0.27789062,0.67195714,-20.792,9.016001,10.396,134.32822,1000,1000,1000,1000,0.0,0.0,0.0,0.0,1009.75,24.9,29.17863,9999999.0,29.17863,9999999.0,-56.795643,0.026957633,0.098225206,-60.42678,-0.23177558,-43.643887,-0.29006532,0.15718105,1.2995453
00:53:23.566;-0.038307227,-8.42759,4.4436383,-11.477556,0.088320315,0.67195714,-20.516,9.108,10.58,133.83249,1000,1000,1000,1000,0.0,0.0,0.0,0.0,1009.75,24.9,29.17863,9999999.0,29.17863,9999999.0,-57.072407,0.03232422,0.14204389,-62.197662,0.23037182,-43.81605,-0.28874052,0.16726041,1.7952728
00:53:23.580;-0.038307227,-8.42759,4.4436383,-11.477556,0.088320315,0.67195714,-20.516,9.108,10.58,133.83249,1000,1000,1000,1000,0.0,0.0,0.0,0.0,1009.75,24.9,29.17863,9999999.0,29.17863,9999999.0,-57.332386,0.037496924,0.18432769,-62.197662,0.23037182,-43.976738,-0.28750402,0.17666781,1.7952728
00:53:23.594;-0.11492168,-8.504205,4.2904096,-8.91408,-0.39996094,-0.42667568,-20.516,9.108,10.58,133.83249,1000,1000,1000,1000,0.0,0.0,0.0,0.0,1009.82996,24.9,28.512777,9999999.0,28.512777,9999999.0,-57.572453,0.04508435,0.22576581,-63.220585,0.69124216,-44.101536,-0.29310346,0.18607521,1.7952728
00:53:23.608;-0.11492168,-8.504205,4.2904096,-8.91408,-0.39996094,-0.42667568,-20.516,9.108,10.58,133.83249,1000,1000,1000,1000,0.0,0.0,0.0,0.0,1009.82996,24.9,28.512777,9999999.0,28.512777,9999999.0,-57.80772,0.05252003,0.25130194,-63.220585,0.69124216,-44.226334,-0.2987029,0.18010175,1.7952728
00:53:23.623;0.076614454,-8.274361,4.6351743,-8.669939,-0.033749998,0.18367589,-20.424002,9.016001,10.58,133.95248,1000,1000,1000,1000,0.0,0.0,0.0,0.0,1009.82996,24.9,28.512777,9999999.0,28.512777,9999999.0,-57.993813,0.04171687,0.2735093,-60.73976,-0.46283224,-44.356384,-0.29920915,0.17370161,1.6752777
00:53:23.636;0.076614454,-8.274361,4.6351743,-8.669939,-0.033749998,0.18367589,-20.424002,9.016001,10.58,133.95248,1000,1000,1000,1000,0.0,0.0,0.0,0.0,1009.75,24.9,29.17863,9999999.0,29.17863,9999999.0,-58.159187,0.031195924,0.30388469,-60.73976,-0.46283224,-44.469093,-0.2996479,0.1760894,1.6752777
00:53:23.651;0.038307227,-8.312668,4.6351743,-9.15822,0.27142578,0.3057462,-20.424002,9.016001,10.58,133.95248,1000,1000,1000,1000,0.0,0.0,0.0,0.0,1009.75,24.9,29.17863,9999999.0,29.17863,9999999.0,-58.34773,0.029949829,0.33401257,-60.85497,-0.23060684,-44.60647,-0.2955765,0.17884454,1.6752777
00:53:23.665;0.038307227,-8.312668,4.6351743,-9.15822,0.27142578,0.3057462,-20.424002,9.016001,10.58,133.95248,1000,1000,1000,1000,0.0,0.0,0.0,0.0,1009.75,24.9,29.17863,9999999.0,29.17863,9999999.0,-58.523525,0.02846266,0.3650327,-60.85497,-0.23060684,-44.734684,-0.29177654,0.18312499,1.6752777
00:53:23.680;-0.076614454,-8.465898,4.2904096,-8.364763,0.088320315,0.36678135,-20.424002,9.016001,10.58,133.95248,1000,1000,1000,1000,0.0,0.0,0.0,0.0,1009.81,24.9,28.679241,9999999.0,28.679241,9999999.0,-58.73844,0.038441714,0.39573205,-63.121002,0.46250033,-44.860157,-0.29045174,0.18771118,1.6752777
00:53:23.694;-0.076614454,-8.465898,4.2904096,-8.364763,0.088320315,0.36678135,-20.424002,9.016001,10.58,133.95248,1000,1000,1000,1000,0.0,0.0,0.0,0.0,1009.81,24.9,28.679241,9999999.0,28.679241,9999999.0,-58.94086,0.048134632,0.42635518,-63.121002,0.46250033,-44.977264,-0.28921524,0.19284612,1.6752777
00:53:23.707;-0.038307227,-8.389283,4.4819455,-8.364763,-0.15582031,5.704239E-4,-20.24,9.016001,10.58,133.76033,1000,1000,1000,1000,0.0,0.0,0.0,0.0,1009.81,24.9,28.679241,9999999.0,28.679241,9999999.0,-59.106327,0.049801916,0.45984948,-61.88592,0.23075639,-45.086006,-0.2912409,0.19761428,1.8674316
00:53:23.721;-0.038307227,-8.389283,4.4819455,-8.364763,-0.15582031,5.704239E-4,-20.24,9.016001,10.58,133.76033,1000,1000,1000,1000,0.0,0.0,0.0,0.0,1009.70996,24.9,29.5142,9999999.0,29.5142,9999999.0,-59.276684,0.051283147,0.48800892,-61.88592,0.23075639,-45.203114,-0.29342237,0.19762227,1.8674316
00:53:23.736;0.0,-8.580819,4.213795,-7.327166,-0.094785154,0.3057462,-20.24,9.016001,10.58,133.76033,1000,1000,1000,1000,0.0,0.0,0.0,0.0,1009.70996,24.9,29.5142,9999999.0,29.5142,9999999.0,-59.468594,0.04895703,0.5156052,-63.845665,-0.0,-45.305695,-0.29474935,0.19763026,1.8674316
00:53:23.750;0.0,-8.580819,4.213795,-7.327166,-0.094785154,0.3057462,-20.24,9.016001,10.58,133.76033,1000,1000,1000,1000,0.0,0.0,0.0,0.0,1009.70996,24.9,29.5142,9999999.0,29.5142,9999999.0,-59.663845,0.04658455,0.5471362,-63.845665,-0.0,-45.415604,-0.29617113,0.20221645,1.8674316
00:53:23.764;0.0,-8.810662,3.9456444,-4.4585137,0.027285159,0.48885167,-20.148,9.108,10.672,133.44556,1000,1000,1000,1000,0.0,0.0,0.0,0.0,1009.63,24.9,30.182695,9999999.0,30.182695,9999999.0,-59.84926,0.046027213,0.58403236,-65.87592,-0.0,-45.478024,-0.29578912,0.2064969,2.1822052
00:53:23.780;0.0,-8.810662,3.9456444,-4.4585137,0.027285159,0.48885167,-20.148,9.108,10.672,133.44556,1000,1000,1000,1000,0.0,0.0,0.0,0.0,1009.63,24.9,30.182695,9999999.0,30.182695,9999999.0,-60.0397,0.045534503,0.623661,-65.87592,-0.0,-45.54936,-0.29535255,0.21431851,2.1822052
00:53:23.793;-0.038307227,-8.772355,3.86903,-1.3457206,0.027285159,0.06160558,-20.148,9.108,10.672,133.44556,1000,1000,1000,1000,0.0,0.0,0.0,0.0,1009.63,24.9,30.182695,9999999.0,30.182695,9999999.0,-60.180035,0.04954986,0.6610598,-66.19918,0.228922,-45.566853,-0.29499784,0.22067359,2.1822052
00:53:23.808;-0.038307227,-8.772355,3.86903,-1.3457206,0.027285159,0.06160558,-20.148,9.108,10.672,133.44556,1000,1000,1000,1000,0.0,0.0,0.0,0.0,1009.70996,24.9,29.5142,9999999.0,29.5142,9999999.0,-60.3202,0.05353839,0.6923883,-66.19918,0.228922,-45.58704,-0.29458857,0.22159767,2.1822052
00:53:23.822;-0.038307227,-8.695741,3.9839516,2.072248,0.14935547,-0.24357021,-20.056,9.108,10.58,133.34698,1000,1000,1000,1000,0.0,0.0,0.0,0.0,1009.70996,24.9,29.5142,9999999.0,29.5142,9999999.0,-60.39305,0.059106104,0.7250013,-65.384125,0.2294666,-45.55803,-0.29249758,0.22246015,2.280777
00:53:23.837;-0.038307227,-8.695741,3.9839516,2.072248,0.14935547,-0.24357021,-20.056,9.108,10.58,133.34698,1000,1000,1000,1000,0.0,0.0,0.0,0.0,1009.70996,24.9,29.5142,9999999.0,29.5142,9999999.0,-60.462414,0.06470884,0.7525363,-65.384125,0.2294666,-45.526947,-0.29025725,0.2188066,2.280777
00:53:23.851;0.0,-8.734048,4.0222588,4.9409003,0.088320315,-0.42667568,-20.056,9.108,10.58,133.34698,1000,1000,1000,1000,0.0,0.0,0.0,0.0,1009.58997,24.9,30.515621,9999999.0,30.515621,9999999.0,-60.490833,0.06462642,0.7797593,-65.27269,-0.0,-45.457775,-0.28902075,0.21539661,2.280777
00:53:23.865;0.0,-8.734048,4.0222588,4.9409003,0.088320315,-0.42667568,-20.056,9.108,10.58,133.34698,1000,1000,1000,1000,0.0,0.0,0.0,0.0,1009.58997,24.9,30.515621,9999999.0,30.515621,9999999.0,-60.518684,0.06454565,0.80392563,-65.27269,-0.0,-45.388603,-0.28778425,0.20942315,2.280777
00:53:23.882;0.0,-8.734048,4.0222588,4.9409003,0.088320315,-0.42667568,-20.056,9.108,10.58,133.34698,1000,1000,1000,1000,0.0,0.0,0.0,0.0,1009.58997,24.9,30.515621,9999999.0,30.515621,9999999.0,-60.53145,0.06472615,0.8263542,-65.27269,-0.0,-45.304607,-0.2862828,0.20216967,2.280777
00:53:23.894;0.0,-8.6574335,4.1371803,7.2602363,0.21039063,-0.18253505,-20.148,9.108,10.672,133.44556,1000,1000,1000,1000,0.0,0.0,0.0,0.0,1009.76996,24.9,29.012167,9999999.0,29.012167,9999999.0,-60.524597,0.065905824,0.8484535,-64.45798,-0.0,-45.217484,-0.28375813,0.19704956,2.1822052
00:53:23.909;0.0,-8.6574335,4.1371803,7.2602363,0.21039063,-0.18253505,-20.148,9.108,10.672,133.44556,1000,1000,1000,1000,0.0,0.0,0.0,0.0,1009.76996,24.9,29.012167,9999999.0,29.012167,9999999.0,-60.49654,0.06768045,0.8724453,-64.45798,-0.0,-45.10858,-0.28060228,0.19431153,2.1822052
00:53:23.922;0.0,-8.619126,4.1371803,9.640608,0.3934961,5.704239E-4,-20.148,9.108,10.672,133.44556,1000,1000,1000,1000,0.0,0.0,0.0,0.0,1009.76996,24.9,29.012167,9999999.0,29.012167,9999999.0,-60.450966,0.07133998,0.8963149,-64.35899,-0.0,-44.983253,-0.27548683,0.19193858,2.1822052
00:53:23.936;-0.038307227,-8.619126,4.175488,11.959944,0.75970703,-0.60978115,-20.148,9.108,10.672,133.44556,1000,1000,1000,1000,0.0,0.0,0.0,0.0,1009.76996,24.9,29.012167,9999999.0,29.012167,9999999.0,-60.360886,0.08491977,0.9220405,-64.15144,0.22917089,-44.815815,-0.2648509,0.19194657,2.1822052
00:53:23.950;-0.038307227,-8.619126,4.175488,11.959944,0.75970703,-0.60978115,-20.148,9.108,10.672,133.44556,1000,1000,1000,1000,0.0,0.0,0.0,0.0,1009.70996,24.9,29.5142,9999999.0,29.5142,9999999.0,-60.272606,0.09822797,0.9388776,-64.15144,0.22917089,-44.648376,-0.254215,0.18340963,2.1822052
00:53:23.964;-0.038307227,-8.580819,4.098873,14.27928,0.27142578,-0.548746,-20.332,9.016001,10.58,133.85677,1000,1000,1000,1000,0.0,0.0,0.0,0.0,1009.70996,24.9,29.5142,9999999.0,29.5142,9999999.0,-60.160564,0.10460343,0.94715375,-64.466225,0.23080319,-44.448467,-0.25041503,0.1748727,1.7709961
00:53:23.979;-0.038307227,-8.580819,4.098873,14.27928,0.27142578,-0.548746,-20.332,9.016001,10.58,133.85677,1000,1000,1000,1000,0.0,0.0,0.0,0.0,1009.70996,24.9,29.5142,9999999.0,29.5142,9999999.0,-60.036774,0.111117385,0.955564,-64.466225,0.23080319,-44.23428,-0.24634364,0.1666415,1.7709961
00:53:23.992;0.0,-8.389283,4.367024,16.354475,0.27142578,-0.24357021,-20.332,9.016001,10.58,133.85677,1000,1000,1000,1000,0.0,0.0,0.0,0.0,1009.70996,24.9,29.5142,9999999.0,29.5142,9999999.0,-59.877697,0.112353005,0.9648816,-62.500862,-0.0,-44.02167,-0.2428151,0.15950781,1.7709961
00:53:24.006;0.0,-8.389283,4.367024,16.354475,0.27142578,-0.24357021,-20.332,9.016001,10.58,133.85677,1000,1000,1000,1000,0.0,0.0,0.0,0.0,1009.70996,24.9,29.5142,9999999.0,29.5142,9999999.0,-59.705776,0.11382991,0.9776621,-62.500862,-0.0,-43.79271,-0.23901515,0.15609783,1.7709961
00:53:24.021;-0.038307227,-8.350976,4.405331,18.06346,0.33246094,-0.060464732,-20.7,9.108,10.58,134.02164,1000,1000,1000,1000,0.0,0.0,0.0,0.0,1009.70996,24.9,29.5142,9999999.0,29.5142,9999999.0,-59.48986,0.12108971,0.9866509,-62.18643,0.2324613,-43.52176,-0.23402824,0.15244427,1.6061249
00:53:24.034;-0.038307227,-8.350976,4.405331,18.06346,0.33246094,-0.060464732,-20.7,9.108,10.58,134.02164,1000,1000,1000,1000,0.0,0.0,0.0,0.0,1009.85,24.9,28.346313,9999999.0,28.346313,9999999.0,-59.313663,0.12755269,0.99827003,-62.18643,0.2324613,-43.286934,-0.22970624,0.15165824,1.6061249
00:53:24.048;0.0,-8.274361,4.596867,19.528303,0.9428125,-0.6708163,-20.7,9.108,10.58,134.02164,1000,1000,1000,1000,0.0,0.0,0.0,0.0,1009.85,24.9,28.346313,9999999.0,28.346313,9999999.0,-59.07837,0.13793702,1.0095975,-60.945396,-0.0,-43.01354,-0.21650687,0.15081173,1.6061249
00:53:24.063;0.0,-8.274361,4.596867,19.528303,0.9428125,-0.6708163,-20.7,9.108,10.58,134.02164,1000,1000,1000,1000,0.0,0.0,0.0,0.0,1009.85,24.9,28.346313,9999999.0,28.346313,9999999.0,-58.828644,0.14903763,1.0116671,-60.945396,-0.0,-42.720615,-0.20236468,0.14074948,1.6061249
00:53:24.077;0.0,-8.274361,4.4819455,21.481428,0.5155664,-0.36564052,-20.7,9.108,10.58,134.02164,1000,1000,1000,1000,0.0,0.0,0.0,0.0,1009.85,24.9,28.346313,9999999.0,28.346313,9999999.0,-58.60954,0.1526252,1.01501,-61.55707,-0.0,-42.441357,-0.19566232,0.13202888,1.6061249
00:53:24.091;0.0,-8.274361,4.4819455,21.481428,0.5155664,-0.36564052,-20.7,9.108,10.58,134.02164,1000,1000,1000,1000,0.0,0.0,0.0,0.0,1009.85,24.9,28.346313,9999999.0,28.346313,9999999.0,-58.352715,0.15715152,1.0214574,-61.55707,-0.0,-42.119137,-0.18792883,0.12654427,1.6061249
00:53:24.105;0.038307227,-8.082825,4.711789,23.434553,-0.033749998,-0.060464732,-20.976002,9.108,10.396,134.30014,1000,1000,1000,1000,0.0,0.0,0.0,0.0,1009.85,24.9,28.346313,9999999.0,28.346313,9999999.0,-58.05933,0.14885359,1.0225642,-59.759624,-0.23459296,-41.791054,-0.18840133,0.1214253,1.3276215
00:53:24.119;0.038307227,-8.082825,4.711789,23.434553,-0.033749998,-0.060464732,-20.976002,9.108,10.396,134.30014,1000,1000,1000,1000,0.0,0.0,0.0,0.0,1009.70996,24.9,29.5142,9999999.0,29.5142,9999999.0,-57.771812,0.1407216,1.0278357,-59.759624,-0.23459296,-41.46297,-0.18887383,0.120578796,1.3276215
00:53:24.133;0.0,-7.8912888,4.8267107,24.47215,1.2479882,-0.73185146,-20.976002,9.108,10.396,134.30014,1000,1000,1000,1000,0.0,0.0,0.0,0.0,1009.70996,24.9,29.5142,9999999.0,29.5142,9999999.0,-57.45158,0.15502958,1.0330019,-58.54794,-0.0,-41.12036,-0.17140199,0.11973229,1.3276215
00:53:24.147;0.0,-7.8912888,4.8267107,24.47215,1.2479882,-0.73185146,-20.976002,9.108,10.396,134.30014,1000,1000,1000,1000,0.0,0.0,0.0,0.0,1009.70996,24.9,29.5142,9999999.0,29.5142,9999999.0,-57.161736,0.16782837,1.0295705,-58.54794,-0.0,-40.802223,-0.15517814,0.11021822,1.3276215
00:53:24.162;0.038307227,-8.00621,4.7884035,26.24217,0.3934961,-0.24357021,-21.344,9.016001,10.12,134.87126,1000,1000,1000,1000,0.0,0.0,0.0,0.0,1009.76996,24.9,29.012167,9999999.0,29.012167,9999999.0,-56.789345,0.16593638,1.0126337,-59.116135,-0.23527235,-40.382347,-0.14888221,0.0985086,0.75650024
00:53:24.181;0.038307227,-8.00621,4.7884035,26.24217,0.3934961,-0.24357021,-21.344,9.016001,10.12,134.87126,1000,1000,1000,1000,0.0,0.0,0.0,0.0,1009.76996,24.9,29.012167,9999999.0,29.012167,9999999.0,-56.34725,0.16523911,1.0029758,-59.116135,-0.23527235,-39.883747,-0.14140579,0.093880765,0.75650024
00:53:24.195;0.038307227,-7.73806,4.903325,28.13426,0.8207422,-0.24357021,-21.344,9.016001,10.12,134.87126,1000,1000,1000,1000,0.0,0.0,0.0,0.0,1009.76996,24.9,29.012167,9999999.0,29.012167,9999999.0,-56.01464,0.1675988,0.9949432,-57.63827,-0.23958942,-39.518,-0.13073614,0.09071435,0.75650024
00:53:24.210;0.038307227,-7.73806,4.903325,28.13426,0.8207422,-0.24357021,-21.344,9.016001,10.12,134.87126,1000,1000,1000,1000,0.0,0.0,0.0,0.0,1009.75,24.9,29.17863,9999999.0,29.17863,9999999.0,-55.605965,0.17232428,0.9863551,-57.63827,-0.23958942,-39.067852,-0.11760427,0.08681723,0.75650024
00:53:24.223;-0.076614454,-7.5465236,5.056554,29.171858,0.75970703,-0.7928866,-21.896,9.108,9.936001,135.18547,1000,1000,1000,1000,0.0,0.0,0.0,0.0,1009.75,24.9,29.17863,9999999.0,29.17863,9999999.0,-55.24565,0.1882209,0.97237074,-56.172867,0.483222,-38.688618,-0.10772808,0.08365081,0.44229126
00:53:24.248;-0.076614454,-7.5465236,5.056554,29.171858,0.75970703,-0.7928866,-21.896,9.108,9.936001,135.18547,1000,1000,1000,1000,0.0,0.0,0.0,0.0,1009.75,24.9,29.17863,9999999.0,29.17863,9999999.0,-54.549484,0.21273375,0.9423434,-56.172867,0.483222,-37.95932,-0.0887354,0.06382865,0.44229126
00:53:24.267;0.0,-7.3549876,5.363012,29.721174,0.45453125,0.06160558,-21.896,9.108,9.936001,135.18547,1000,1000,1000,1000,0.0,0.0,0.0,0.0,1009.82996,24.9,28.512777,9999999.0,28.512777,9999999.0,-53.983124,0.21694244,0.9175788,-53.901714,-0.0,-37.39462,-0.08009931,0.048763804,0.44229126
00:53:24.280;0.0,-7.3549876,5.363012,29.721174,0.45453125,0.06160558,-21.896,9.108,9.936001,135.18547,1000,1000,1000,1000,0.0,0.0,0.0,0.0,1009.82996,24.9,28.512777,9999999.0,28.512777,9999999.0,-53.602848,0.21839432,0.9088579,-53.901714,-0.0,-37.008244,-0.0741904,0.04956468,0.44229126
00:53:24.300;-0.038307227,-7.2783732,5.401319,30.087385,0.57660156,-0.18253505,-22.264,9.292001,9.568,135.11765,1000,1000,1000,1000,0.0,0.0,0.0,0.0,1009.81,24.9,28.679241,9999999.0,28.679241,9999999.0,-53.009476,0.23017098,0.90209055,-53.420006,0.2421585,-36.406494,-0.06265837,0.05079679,0.5101166
00:53:24.309;-0.038307227,-7.201759,5.5162406,30.758772,0.8207422,-0.548746,-22.264,9.292001,9.568,135.11765,1000,1000,1000,1000,0.0,0.0,0.0,0.0,1009.81,24.9,28.679241,9999999.0,28.679241,9999999.0,-52.759113,0.23684107,0.89282006,-52.548756,0.24194466,-36.160423,-0.056092434,0.049336508,0.5101166
00:53:24.325;-0.038307227,-7.201759,5.5162406,30.758772,0.8207422,-0.548746,-22.264,9.292001,9.568,135.11765,1000,1000,1000,1000,0.0,0.0,0.0,0.0,1009.81,24.9,28.679241,9999999.0,28.679241,9999999.0,-52.242466,0.25061673,0.87602395,-52.548756,0.24194466,-35.637524,-0.042139817,0.040007826,0.5101166
00:53:24.336;0.038307227,-7.086837,5.631162,30.941877,1.2479882,-0.42667568,-22.264,9.292001,9.568,135.11765,1000,1000,1000,1000,0.0,0.0,0.0,0.0,1009.64996,24.9,30.01359,9999999.0,30.01359,9999999.0,-51.894646,0.2542082,0.86279035,-51.52889,-0.24247707,-35.297165,-0.028411947,0.03397162,0.5101166
00:53:24.353;0.038307227,-7.086837,5.631162,30.941877,1.2479882,-0.42667568,-22.264,9.292001,9.568,135.11765,1000,1000,1000,1000,0.0,0.0,0.0,0.0,1009.64996,24.9,30.01359,9999999.0,30.01359,9999999.0,-51.37184,0.265066,0.8486285,-51.52889,-0.24247707,-34.771152,-0.007196147,0.026718132,0.5101166
00:53:24.364;-0.038307227,-6.8569937,5.8226986,30.514631,0.33246094,-0.12149989,-22.724,9.292001,9.384001,135.53114,1000,1000,1000,1000,0.0,0.0,0.0,0.0,1009.64996,24.9,30.01359,9999999.0,30.01359,9999999.0,-51.008713,0.26822835,0.8289888,-49.66274,0.24398714,-34.435493,-0.0035390768,0.0220247,0.09661865
00:53:24.380;-0.038307227,-6.8569937,5.8226986,30.514631,0.33246094,-0.12149989,-22.724,9.292001,9.384001,135.53114,1000,1000,1000,1000,0.0,0.0,0.0,0.0,1009.76996,24.9,29.012167,9999999.0,29.012167,9999999.0,-50.53323,0.27263072,0.8125554,-49.66274,0.24398714,-33.977776,0.0014478371,0.020202203,0.09661865
00:53:24.393;0.0,-6.7803793,5.8226986,30.941877,0.75970703,-0.36564052,-22.724,9.292001,9.384001,135.53114,1000,1000,1000,1000,0.0,0.0,0.0,0.0,1009.76996,24.9,29.012167,9999999.0,29.012167,9999999.0,-50.084953,0.2776013,0.7965697,-49.345432,-0.0,-33.54459,0.012083735,0.018501204,0.09661865
00:53:24.408;0.0,-6.7803793,5.8226986,30.941877,0.75970703,-0.36564052,-22.724,9.292001,9.384001,135.53114,1000,1000,1000,1000,0.0,0.0,0.0,0.0,1009.76996,24.9,29.012167,9999999.0,29.012167,9999999.0,-49.61532,0.28321698,0.7771958,-49.345432,-0.0,-33.080463,0.02347934,0.013016596,0.09661865
00:53:24.422;-0.038307227,-6.588843,5.9759274,31.124983,0.75970703,-0.48771083,-23.276001,9.384001,8.924,135.8137,1000,1000,1000,1000,0.0,0.0,0.0,0.0,1009.81,24.9,28.679241,9999999.0,28.679241,9999999.0,-49.18232,0.29216617,0.7532748,-47.792114,0.2467431,-32.67584,0.033355534,0.008263269,-0.1859436
00:53:24.436;-0.038307227,-6.588843,5.9759274,31.124983,0.75970703,-0.48771083,-23.276001,9.384001,8.924,135.8137,1000,1000,1000,1000,0.0,0.0,0.0,0.0,1009.81,24.9,28.679241,9999999.0,28.679241,9999999.0,-48.72748,0.3016809,0.72779906,-47.792114,0.2467431,-32.24009,0.04399143,0.0014353176,-0.1859436
00:53:24.450;0.0,-6.397307,6.167464,31.247053,0.8207422,-0.42667568,-23.276001,9.384001,8.924,135.8137,1000,1000,1000,1000,0.0,0.0,0.0,0.0,1009.81,24.9,28.679241,9999999.0,28.679241,9999999.0,-48.21456,0.3077122,0.7023549,-46.047977,-0.0,-31.771383,0.056302562,-0.0058803447,-0.1859436
00:53:24.464;0.0,-6.397307,6.167464,31.247053,0.8207422,-0.42667568,-23.276001,9.384001,8.924,135.8137,1000,1000,1000,1000,0.0,0.0,0.0,0.0,1009.76996,24.9,29.012167,9999999.0,29.012167,9999999.0,-47.742523,0.31281856,0.67873496,-46.047977,-0.0,-31.333925,0.06779295,-0.011853805,-0.1859436
