timestamp,X [°],Acce X[°],Gyro X[°]
00:53:18.714,-0.08249145,-4.1245766,0
00:53:18.729,-0.14812988,-3.3017135,-0.0012796473
00:53:18.746,-0.21741524,-3.5591042,-0.0023673475
00:53:18.761,-0.2851268,-3.5591042,-0.0032631005
00:53:18.771,-0.35032392,-3.5762932,-0.0026241331
00:53:18.787,-0.41393244,-3.5762932,-0.0016947261
00:53:18.801,-0.47687218,-3.558901,-0.001735987
00:53:18.815,-0.5385531,-3.558901,-0.001777248
00:53:18.831,-0.604833,-3.8502398,-0.0018244034
00:53:18.845,-0.6697757,-3.8502398,-0.0018597699
00:53:18.859,-0.73343116,-3.8502398,-0.0019069253
00:53:18.873,-0.7938339,-3.542201,-0.0062206476
00:53:18.887,-0.8527267,-3.542201,-0.010226246
00:53:18.901,-0.9144985,-3.813687,-0.012830984
00:53:18.914,-0.9750349,-3.813687,-0.015435722
00:53:18.932,-1.0350899,-3.813687,-0.01878467
00:53:18.942,-1.0870141,-3.5761695,-0.019909827
00:53:18.956,-1.1385124,-3.5761695,-0.021660073
00:53:18.971,-1.1927086,-3.558901,-0.027566604
00:53:18.986,-1.2454591,-3.558901,-0.033103976
00:53:18.998,-1.2872701,-3.3015232,-0.033807784
00:53:19.012,-1.3284956,-3.3015232,-0.03476752
00:53:19.028,-1.3753995,-3.575675,-0.0367678
00:53:19.040,-1.4208752,-3.575675,-0.03826801
00:53:19.054,-1.4665337,-3.5761695,-0.04087275
00:53:19.069,-1.5114613,-3.5761695,-0.04366354
00:53:19.082,-1.5507324,-3.3176267,-0.04687568
00:53:19.097,-1.5897025,-3.3176267,-0.050582
00:53:19.111,-1.6303096,-3.5761695,-0.051477753
00:53:19.132,-1.6705434,-3.5761695,-0.052821383
00:53:19.147,-1.7095965,-3.5761695,-0.05378112
00:53:19.157,-1.7535166,-3.8504615,-0.054906275
00:53:19.168,-1.7977517,-3.832095,-0.057624243
00:53:19.183,-1.8423128,-3.832095,-0.061577648
00:53:19.225,-1.8854802,-3.8690047,-0.06426491
00:53:19.241,-1.9241253,-3.5761695,-0.069194876
00:53:19.259,-1.9632897,-3.6105828,-0.07474109
00:53:19.270,-1.9995571,-3.6105828,-0.07813044
00:53:19.286,-2.0341647,-3.5931897,-0.08092123
00:53:19.317,-2.0711799,-3.5931897,-0.08687492
00:53:19.335,-2.1026902,-3.5933988,-0.08796262
00:53:19.342,-2.133006,-3.5933988,-0.08847448
00:53:19.362,-2.174229,-3.8504615,-0.09548849
00:53:19.370,-2.2110095,-3.8504615,-0.09881091
00:53:19.387,-2.2407358,-3.5931897,-0.10093621
00:53:19.398,-2.2691324,-3.5931897,-0.1023114
00:53:19.431,-2.299534,-3.5931897,-0.10631196
00:53:19.471,-2.3207374,-3.5931897,-0.10154704
00:53:19.489,-2.3504426,-3.5759635,-0.10624171
00:53:19.497,-2.3768945,-3.5761695,-0.10821842
00:53:19.515,-2.4052389,-3.5761695,-0.112665996
00:53:19.528,-2.4253798,-3.2548757,-0.115878135
00:53:19.546,-2.4463282,-3.2548757,-0.120325714
00:53:19.556,-2.4713466,-3.5761695,-0.122796595
00:53:19.573,-2.4975595,-3.5761695,-0.12699708
00:53:19.586,-2.5213196,-3.5761695,-0.12922971
00:53:19.619,-2.548616,-3.5761695,-0.1355555
00:53:19.631,-2.5754051,-3.8504615,-0.13632329
00:53:19.644,-2.6017215,-3.8504615,-0.13715506
00:53:19.658,-2.625438,-3.5761695,-0.14146878
00:53:19.671,-2.648076,-3.5761695,-0.14516625
00:53:19.686,-2.6718097,-3.5931897,-0.15009622
00:53:19.700,-2.6944647,-3.5931897,-0.15440995
00:53:19.715,-2.7208853,-3.887864,-0.15701468
00:53:19.727,-2.7465951,-3.887864,-0.15943336
00:53:19.748,-2.7728722,-3.8690047,-0.16334046
00:53:19.758,-2.7966182,-3.8690047,-0.165201
00:53:19.771,-2.8181005,-3.8690047,-0.16523635
00:53:19.785,-2.8391616,-3.8690047,-0.16528057
00:53:19.800,-2.8621252,-3.8505945,-0.16807136
00:53:19.813,-2.884265,-3.8505945,-0.17049004
00:53:19.827,-2.9052997,-3.8502398,-0.17224029
00:53:19.841,-2.9259136,-3.8502398,-0.17399053
00:53:19.856,-2.9375079,-3.5931897,-0.17220369
00:53:19.872,-2.9487536,-3.5931897,-0.17029773
00:53:19.885,-2.9624574,-3.5931897,-0.1711295
00:53:19.900,-2.9760125,-3.5931897,-0.17208923
00:53:19.914,-2.9888935,-3.5761695,-0.17298499
00:53:19.928,-3.001517,-3.5761695,-0.17388074
00:53:19.943,-3.0224988,-3.8690047,-0.17758706
00:53:19.956,-3.0425768,-3.8690047,-0.1807992
00:53:19.970,-3.0483184,-3.2857642,-0.18169495
00:53:19.985,-3.0540078,-3.2857642,-0.1826547
00:53:20.006,-3.064047,-3.3017135,-0.18784353
00:53:20.012,-3.0702534,-3.3017135,-0.18932606
00:53:20.027,-3.085536,-3.8322263,-0.18937027
00:53:20.041,-3.1005075,-3.8322263,-0.18940859
00:53:20.057,-3.1141372,-3.5761695,-0.19360907
00:53:20.074,-3.1274943,-3.5761695,-0.19780956
00:53:20.090,-3.145828,-3.8504615,-0.20176297
00:53:20.097,-3.1616158,-3.8504615,-0.20349258
00:53:20.112,-3.1714056,-3.5592263,-0.20536785
00:53:20.125,-3.1807547,-3.5592263,-0.20699307
00:53:20.139,-3.1903782,-3.5761695,-0.20874332
00:53:20.154,-3.1999319,-3.5761695,-0.21061859
00:53:20.167,-3.2121599,-3.5761695,-0.21541764
00:53:20.181,-3.224505,-3.5761695,-0.22058585
00:53:20.196,-3.2392325,-3.8690047,-0.22246112
00:53:20.209,-3.2534206,-3.8690047,-0.22408634
00:53:20.224,-3.2671883,-3.8499293,-0.22596161
00:53:20.239,-3.2806807,-3.8499293,-0.22783688
00:53:20.253,-3.293325,-3.8690047,-0.22873263
00:53:20.269,-3.305779,-3.8690047,-0.22969237
00:53:20.281,-3.3096194,-3.3015232,-0.23369797
00:53:20.295,-3.313685,-3.3015232,-0.23801169
00:53:20.310,-3.3193183,-3.5931897,-0.2380559
00:53:20.324,-3.3248332,-3.5931897,-0.23809421
00:53:20.338,-3.3302407,-3.5931897,-0.23813547
00:53:20.352,-3.3339665,-3.5592263,-0.23726416
00:53:20.366,-3.3391912,-3.5931897,-0.23730542
00:53:20.382,-3.3443174,-3.5931897,-0.23735258
00:53:20.396,-3.3400545,-3.01265,-0.23977126
00:53:20.410,-3.3362412,-3.01265,-0.24256206
00:53:20.424,-3.3392613,-3.3177426,-0.24602129
00:53:20.438,-3.342221,-3.3177426,-0.24948052
00:53:20.452,-3.3515782,-3.8499293,-0.24866728
00:53:20.466,-3.3607483,-3.8499293,-0.24785405
00:53:20.481,-3.3759692,-3.8504615,-0.2533914
00:53:20.496,-3.3908856,-3.8504615,-0.25892878
00:53:20.509,-3.3977394,-3.5761695,-0.26214093
00:53:20.523,-3.4046981,-3.5761695,-0.26560014
00:53:20.537,-3.4090054,-3.5761695,-0.26649588
00:53:20.551,-3.4132266,-3.5761695,-0.26739162
00:53:20.566,-3.4192204,-3.5761695,-0.2701824
00:53:20.581,-3.4250944,-3.5761695,-0.27297318
00:53:20.595,-3.4305263,-3.610922,-0.2747234
00:53:20.609,-3.4358494,-3.610922,-0.27647364
00:53:20.624,-3.4399366,-3.5931897,-0.27743337
00:53:20.637,-3.443817,-3.5931897,-0.27826515
00:53:20.652,-3.4544978,-3.8502398,-0.28086987
00:53:20.667,-3.4651475,-3.8502398,-0.28366065
00:53:20.680,-3.4674056,-3.5761695,-0.28369898
00:53:20.694,-3.4696214,-3.5761695,-0.28374022
00:53:20.709,-3.4672,-3.3015232,-0.28469995
00:53:20.721,-3.464702,-3.3015232,-0.28553173
00:53:20.737,-3.4734204,-3.8504615,-0.28655544
00:53:20.751,-3.4818392,-3.8504615,-0.28745118
00:53:20.768,-3.4879448,-3.5933988,-0.29140458
00:53:20.784,-3.4941704,-3.5933988,-0.29560506
00:53:20.798,-3.5026467,-3.8322263,-0.2973553
00:53:20.811,-3.5107083,-3.8322263,-0.2988555
00:53:20.825,-3.5208962,-3.8505945,-0.30231473
00:53:20.839,-3.5311222,-3.8505945,-0.30602103
00:53:20.853,-3.5329325,-3.5420008,-0.30764627
00:53:20.867,-3.5349514,-3.5420008,-0.30952153
00:53:20.880,-3.5424829,-3.8318763,-0.31114677
00:53:20.895,-3.5501084,-3.8318763,-0.31302202
00:53:20.910,-3.5542643,-3.5762932,-0.31672832
00:53:20.925,-3.558337,-3.5762932,-0.32043463
00:53:20.939,-3.5654309,-3.8691397,-0.32133037
00:53:20.953,-3.572383,-3.8691397,-0.3222261
00:53:20.967,-3.5750072,-3.5759635,-0.32483083
00:53:20.981,-3.5775788,-3.5759635,-0.32743555
00:53:20.995,-3.5759163,-3.5761695,-0.32576782
00:53:21.009,-3.5742872,-3.5761695,-0.32410008
00:53:21.023,-3.581996,-3.832095,-0.3267048
00:53:21.037,-3.5895505,-3.832095,-0.32930952
00:53:21.052,-3.597692,-3.8690047,-0.33191425
00:53:21.066,-3.605671,-3.8690047,-0.33451897
00:53:21.080,-3.6136725,-3.8690047,-0.33730975
00:53:21.094,-3.6166527,-3.5931897,-0.34076896
00:53:21.108,-3.624837,-3.8684647,-0.34398112
00:53:21.122,-3.6330996,-3.8684647,-0.34744033
00:53:21.135,-3.6395328,-3.8690047,-0.34919056
00:53:21.150,-3.6459599,-3.8690047,-0.3510658
00:53:21.164,-3.6526053,-3.8505945,-0.35367054
00:53:21.178,-3.6591177,-3.8505945,-0.35627526
00:53:21.193,-3.663885,-3.8504615,-0.35723498
00:53:21.207,-3.6684945,-3.8504615,-0.35813072
00:53:21.221,-3.6642334,-3.2859519,-0.36158994
00:53:21.236,-3.6602998,-3.2859519,-0.36529624
00:53:21.251,-3.6634867,-3.5931897,-0.36991808
00:53:21.265,-3.6663082,-3.5931897,-0.37423182
00:53:21.279,-3.6712475,-3.5762932,-0.381109
00:53:21.293,-3.676088,-3.5762932,-0.38798618
00:53:21.307,-3.6838377,-3.5591042,-0.39828134
00:53:21.321,-3.6914322,-3.5591042,-0.4085765
00:53:21.335,-3.7038603,-3.8502398,-0.41801715
00:53:21.349,-3.7160397,-3.8502398,-0.4274578
00:53:21.363,-3.7261133,-3.2546933,-0.44715238
00:53:21.377,-3.7359855,-3.2546933,-0.46684694
00:53:21.391,-3.762702,-3.813687,-0.49252295
00:53:21.405,-3.7888842,-3.813687,-0.51819897
00:53:21.419,-3.8184977,-3.5089877,-0.5541289
00:53:21.434,-3.8475187,-3.5089877,-0.5900588
00:53:21.448,-3.891153,-2.9288268,-0.6533325
00:53:21.462,-3.938344,-2.9288268,-0.7211257
00:53:21.476,-3.9877055,-1.8556614,-0.8139985
00:53:21.490,-4.050082,-1.8556614,-0.92115945
00:53:21.504,-4.129061,-1.5908678,-1.051938
00:53:21.518,-4.206461,-1.5908678,-1.1827166
00:53:21.532,-4.3552113,-4.356532,-1.3314395
00:53:21.547,-4.511397,-4.356532,-1.4907855
00:53:21.561,-4.6783175,-5.737474,-1.6360904
00:53:21.576,-4.852071,-5.737474,-1.7917743
00:53:21.590,-5.028154,-5.657008,-1.9550235
00:53:21.605,-5.212143,-5.657008,-2.1299334
00:53:21.618,-5.362386,-5.2187247,-2.283109
00:53:21.632,-5.5211725,-5.2187247,-2.4480672
00:53:21.646,-5.683523,-5.8488526,-2.607044
00:53:21.660,-5.842627,-5.8488526,-2.7660208
00:53:21.675,-6.0419936,-6.890587,-2.9480689
00:53:21.689,-6.2501163,-6.890587,-3.1431203
00:53:21.704,-6.4622493,-7.0571337,-3.3431127
00:53:21.719,-6.698138,-7.0571337,-3.5716755
00:53:21.731,-6.8924036,-8.406509,-3.735041
00:53:21.746,-7.1228085,-8.406509,-3.9392476
00:53:21.763,-7.38367,-9.232332,-4.162381
00:53:21.775,-7.562136,-9.232332,-4.3067617
00:53:21.793,-7.8399367,-9.232332,-4.556146
00:53:21.808,-8.06073,-9.232332,-4.753029
00:53:21.821,-8.258551,-9.27976,-4.930008
00:53:21.836,-8.504262,-9.595936,-5.153441
00:53:21.852,-8.759657,-9.595936,-5.3917694
00:53:21.866,-8.990252,-11.034074,-5.5806537
00:53:21.882,-9.242678,-11.034074,-5.796521
00:53:21.894,-9.459639,-12.947135,-5.9423084
00:53:21.908,-9.696072,-12.947135,-6.112394
00:53:21.924,-9.928602,-13.559568,-6.2708244
00:53:21.941,-10.187536,-13.559568,-6.460941
00:53:21.951,-10.344479,-13.367669,-6.5561852
00:53:21.965,-10.535617,-13.367669,-6.6895275
00:53:21.981,-10.7380295,-12.614891,-6.853637
00:53:21.994,-10.906239,-12.614891,-6.986976
00:53:22.008,-11.079691,-10.491037,-7.1724424
00:53:22.022,-11.249675,-10.491037,-7.3579087
00:53:22.038,-11.484732,-10.304742,-7.6170473
00:53:22.050,-11.681227,-10.304742,-7.841634
00:53:22.064,-11.946605,-11.768167,-8.110654
00:53:22.080,-12.287796,-11.768167,-8.46245
00:53:22.092,-12.578239,-12.955181,-8.7452
00:53:22.107,-12.909056,-12.955181,-9.075075
00:53:22.121,-13.298274,-13.52625,-9.4596405
00:53:22.136,-13.679708,-13.52625,-9.844206
00:53:22.150,-14.10291,-15.117006,-10.246713
00:53:22.165,-14.545824,-15.117006,-10.67797
00:53:22.181,-15.080558,-17.258762,-11.168251
00:53:22.193,-15.454449,-17.258762,-11.50532
00:53:22.208,-16.017761,-18.687143,-12.014155
00:53:22.222,-16.507477,-18.687143,-12.459387
00:53:22.237,-17.04883,-19.707077,-12.946491
00:53:22.252,-17.579357,-19.707077,-13.433596
00:53:22.265,-18.085411,-22.70178,-13.845438
00:53:22.279,-18.61239,-22.70178,-14.28896
00:53:22.300,-19.322433,-25.460543,-14.873736
00:53:22.307,-19.674427,-25.460543,-15.107647
00:53:22.321,-20.165964,-25.114536,-15.498191
00:53:22.335,-20.64767,-25.114536,-15.888735
00:53:22.349,-21.160854,-28.216879,-16.257917
00:53:22.363,-21.663773,-28.216879,-16.6271
00:53:22.377,-22.148317,-29.47589,-16.962103
00:53:22.391,-22.623173,-29.47589,-17.297106
00:53:22.405,-23.057625,-30.275326,-17.584257
00:53:22.420,-23.503487,-30.275326,-17.891918
00:53:22.434,-23.871012,-30.641762,-18.121265
00:53:22.447,-24.248478,-30.641762,-18.368256
00:53:22.462,-24.575674,-29.385021,-18.597301
00:53:22.477,-24.912357,-29.385021,-18.842707
00:53:22.499,-25.387512,-30.163092,-19.2204
00:53:22.504,-25.56349,-30.163092,-19.302507
00:53:22.518,-25.880865,-29.204073,-19.552061
00:53:22.534,-26.22683,-29.204073,-19.837265
00:53:22.547,-26.547152,-29.177614,-20.103905
00:53:22.562,-26.901268,-29.177614,-20.411566
00:53:22.576,-27.28593,-31.268423,-20.714952
00:53:22.591,-27.684135,-31.268423,-21.040009
00:53:22.604,-28.065882,-33.045135,-21.320137
00:53:22.618,-28.461111,-33.045135,-21.621815
00:53:22.632,-28.862507,-33.832386,-21.921783
00:53:22.646,-29.255875,-33.832386,-22.221752
00:53:22.660,-29.638147,-32.917385,-22.537102
00:53:22.674,-30.012774,-32.917385,-22.852451
00:53:22.688,-30.423128,-34.324707,-23.183182
00:53:22.702,-30.825275,-34.324707,-23.513912
00:53:22.716,-31.252417,-36.102173,-23.84208
00:53:22.730,-31.671015,-36.102173,-24.170246
00:53:22.744,-32.08773,-36.971024,-24.487305
00:53:22.759,-32.518307,-36.971024,-24.82701
00:53:22.773,-32.87094,-35.80172,-25.119833
00:53:22.786,-33.238598,-35.80172,-25.435183
00:53:22.801,-33.658943,-35.681183,-25.814255
00:53:22.815,-34.021347,-35.681183,-26.142784
00:53:22.829,-34.489254,-37.45149,-26.550238
00:53:22.843,-34.92118,-37.45149,-26.930529
00:53:22.857,-35.380657,-39.302696,-27.309965
00:53:22.872,-35.857506,-39.302696,-27.716503
00:53:22.887,-36.362095,-40.89739,-28.128534
00:53:22.902,-36.856594,-40.89739,-28.540565
00:53:22.916,-37.33443,-41.65373,-28.930256
00:53:22.930,-37.80271,-41.65373,-29.319946
00:53:22.945,-38.322792,-42.540462,-29.75395
00:53:22.958,-38.775757,-42.540462,-30.130087
00:53:22.972,-39.284187,-44.474365,-30.532595
00:53:22.987,-39.810627,-44.474365,-30.963852
00:53:23.000,-40.30619,-46.585674,-31.33126
00:53:23.014,-40.81954,-46.585674,-31.726933
00:53:23.028,-41.314945,-46.74628,-32.111496
00:53:23.042,-41.800446,-46.74628,-32.49606
00:53:23.056,-42.28198,-46.02862,-32.90113
00:53:23.070,-42.75388,-46.02862,-33.306202
00:53:23.087,-43.37276,-48.630215,-33.817787
00:53:23.099,-43.802315,-48.630215,-34.14881
00:53:23.113,-44.36321,-50.760036,-34.579155
00:53:23.127,-44.85665,-50.760036,-34.952118
00:53:23.141,-45.36756,-50.846622,-35.351208
00:53:23.155,-45.896187,-50.846622,-35.778805
00:53:23.169,-46.414562,-52.594643,-36.17106
00:53:23.183,-46.922573,-52.594643,-36.563313
00:53:23.197,-47.44131,-54.685863,-36.934204
00:53:23.212,-47.97564,-54.685863,-37.33159
00:53:23.227,-48.47612,-54.290455,-37.71341
00:53:23.241,-48.941643,-54.290455,-38.069775
00:53:23.255,-49.400513,-54.96763,-38.41503
00:53:23.269,-49.850204,-54.96763,-38.76029
00:53:23.283,-50.29952,-56.110065,-39.09102
00:53:23.297,-50.739845,-56.110065,-39.42175
00:53:23.311,-51.1681,-57.035233,-39.730263
00:53:23.325,-51.587788,-57.035233,-40.038776
00:53:23.339,-51.99632,-57.818317,-40.32849
00:53:23.353,-52.39668,-57.818317,-40.618206
00:53:23.367,-52.78107,-58.592724,-40.883995
00:53:23.381,-53.157776,-58.592724,-41.149784
00:53:23.396,-53.537346,-59.438343,-41.408924
00:53:23.410,-53.87546,-59.438343,-41.63351
00:53:23.423,-54.200554,-59.116135,-41.858284
00:53:23.438,-54.53488,-59.116135,-42.099113
00:53:23.452,-54.837467,-59.236473,-42.311924
00:53:23.466,-55.119102,-59.236473,-42.509533
00:53:23.480,-55.42562,-60.079956,-42.721066
00:53:23.494,-55.71219,-60.079956,-42.918495
00:53:23.508,-55.997627,-61.147636,-43.098835
00:53:23.522,-56.27736,-61.147636,-43.279175
00:53:23.536,-56.532894,-60.42678,-43.455242
00:53:23.551,-56.795643,-60.42678,-43.643887
00:53:23.566,-57.072407,-62.197662,-43.81605
00:53:23.580,-57.332386,-62.197662,-43.976738
00:53:23.594,-57.572453,-63.220585,-44.101536
00:53:23.608,-57.80772,-63.220585,-44.226334
00:53:23.623,-57.993813,-60.73976,-44.356384
00:53:23.636,-58.159187,-60.73976,-44.469093
00:53:23.651,-58.34773,-60.85497,-44.60647
00:53:23.665,-58.523525,-60.85497,-44.734684
00:53:23.680,-58.73844,-63.121002,-44.860157
00:53:23.694,-58.94086,-63.121002,-44.977264
00:53:23.707,-59.106327,-61.88592,-45.086006
00:53:23.721,-59.276684,-61.88592,-45.203114
00:53:23.736,-59.468594,-63.845665,-45.305695
00:53:23.750,-59.663845,-63.845665,-45.415604
00:53:23.764,-59.84926,-65.87592,-45.478024
00:53:23.780,-60.0397,-65.87592,-45.54936
00:53:23.793,-60.180035,-66.19918,-45.566853
00:53:23.808,-60.3202,-66.19918,-45.58704
00:53:23.822,-60.39305,-65.384125,-45.55803
00:53:23.837,-60.462414,-65.384125,-45.526947
00:53:23.851,-60.490833,-65.27269,-45.457775
00:53:23.865,-60.518684,-65.27269,-45.388603
00:53:23.882,-60.53145,-65.27269,-45.304607
00:53:23.894,-60.524597,-64.45798,-45.217484
00:53:23.909,-60.49654,-64.45798,-45.10858
00:53:23.922,-60.450966,-64.35899,-44.983253
00:53:23.936,-60.360886,-64.15144,-44.815815
00:53:23.950,-60.272606,-64.15144,-44.648376
00:53:23.964,-60.160564,-64.466225,-44.448467
00:53:23.979,-60.036774,-64.466225,-44.23428
00:53:23.992,-59.877697,-62.500862,-44.02167
00:53:24.006,-59.705776,-62.500862,-43.79271
00:53:24.021,-59.48986,-62.18643,-43.52176
00:53:24.034,-59.313663,-62.18643,-43.286934
00:53:24.048,-59.07837,-60.945396,-43.01354
00:53:24.063,-58.828644,-60.945396,-42.720615
00:53:24.077,-58.60954,-61.55707,-42.441357
00:53:24.091,-58.352715,-61.55707,-42.119137
00:53:24.105,-58.05933,-59.759624,-41.791054
00:53:24.119,-57.771812,-59.759624,-41.46297
00:53:24.133,-57.45158,-58.54794,-41.12036
00:53:24.147,-57.161736,-58.54794,-40.802223
00:53:24.162,-56.789345,-59.116135,-40.382347
00:53:24.181,-56.34725,-59.116135,-39.883747
00:53:24.195,-56.01464,-57.63827,-39.518
00:53:24.210,-55.605965,-57.63827,-39.067852
00:53:24.223,-55.24565,-56.172867,-38.688618
00:53:24.248,-54.549484,-56.172867,-37.95932
00:53:24.267,-53.983124,-53.901714,-37.39462
00:53:24.280,-53.602848,-53.901714,-37.008244
00:53:24.300,-53.009476,-53.420006,-36.406494
00:53:24.309,-52.759113,-52.548756,-36.160423
00:53:24.325,-52.242466,-52.548756,-35.637524
00:53:24.336,-51.894646,-51.52889,-35.297165
00:53:24.353,-51.37184,-51.52889,-34.771152
00:53:24.364,-51.008713,-49.66274,-34.435493
00:53:24.380,-50.53323,-49.66274,-33.977776
00:53:24.393,-50.084953,-49.345432,-33.54459
00:53:24.408,-49.61532,-49.345432,-33.080463
00:53:24.422,-49.18232,-47.792114,-32.67584
00:53:24.436,-48.72748,-47.792114,-32.24009
00:53:24.450,-48.21456,-46.047977,-31.771383
00:53:24.464,-47.742523,-46.047977,-31.333925
00:53:24.478,-47.262478,-45.175747,-30.896467
00:53:24.492,-46.792034,-45.175747,-30.45901
00:53:24.507,-46.27678,-43.592197,-29.998543
00:53:24.522,-45.77183,-43.592197,-29.538076
00:53:24.537,-45.262146,-42.35696,-29.08768
00:53:24.551,-44.79208,-42.35696,-28.667313
00:53:24.565,-44.316208,-40.926514,-28.260616
00:53:24.579,-43.849854,-40.926514,-27.85392
00:53:24.593,-43.369385,-39.12637,-27.460041
00:53:24.607,-42.898525,-39.12637,-27.066162
00:53:24.621,-42.437866,-38.57945,-26.684246
00:53:24.635,-41.98642,-38.57945,-26.30233
00:53:24.651,-41.508232,-37.275166,-25.910528
00:53:24.663,-41.0908,-37.275166,-25.570967
00:53:24.677,-40.644093,-36.213097,-25.214685
00:53:24.692,-40.206318,-36.213097,-24.858404
00:53:24.706,-39.76214,-36.253414,-24.485828
00:53:24.719,-39.375523,-36.253414,-24.16293
00:53:24.734,-38.936897,-35.745182,-23.789438
00:53:24.748,-38.555847,-35.745182,-23.465746
00:53:24.762,-38.14382,-35.32868,-23.111174
00:53:24.776,-37.715218,-35.32868,-22.731274
00:53:24.790,-37.30103,-34.756622,-22.36901
00:53:24.804,-36.920483,-34.756622,-22.032623
00:53:24.818,-36.457195,-33.044003,-21.63899
00:53:24.832,-36.028893,-33.044003,-21.2716
00:53:24.847,-35.553288,-31.53658,-20.877968
00:53:24.862,-35.087193,-31.53658,-20.484335
00:53:24.877,-34.628685,-31.40481,-20.091618
00:53:24.891,-34.205,-31.40481,-19.725082
00:53:24.905,-33.774265,-30.963406,-19.351711
00:53:24.919,-33.352142,-30.963406,-18.97834
00:53:24.933,-32.889393,-28.300442,-18.609241
00:53:24.947,-32.435898,-28.300442,-18.240143
00:53:24.961,-31.994808,-27.964762,-17.881298
00:53:24.975,-31.562538,-27.964762,-17.522453
00:53:24.989,-31.108692,-26.327991,-17.166172
00:53:25.003,-30.663923,-26.327991,-16.80989
00:53:25.017,-30.208284,-24.251064,-16.475826
00:53:25.032,-29.761757,-24.251064,-16.141762
00:53:25.045,-29.34192,-24.00858,-15.830768
00:53:25.060,-28.90871,-24.00858,-15.49756
00:53:25.085,-28.26647,-24.00858,-14.942213
00:53:25.133,-27.200785,-22.922546,-13.963839
00:53:25.142,-26.925013,-20.493067,-13.819331
00:53:25.154,-26.58987,-20.585772,-13.606723
00:53:25.168,-26.261433,-20.585772,-13.3941145
00:53:25.179,-25.98228,-20.341118,-13.230087
00:53:25.193,-25.681921,-20.341118,-13.038722
00:53:25.207,-25.39737,-20.119408,-12.861883
00:53:25.223,-25.106129,-20.119408,-12.672413
00:53:25.235,-24.863901,-20.185581,-12.525661
00:53:25.250,-24.604393,-20.185581,-12.356333
00:53:25.266,-24.343206,-19.617878,-12.191582
00:53:25.279,-24.09801,-19.617878,-12.037814
00:53:25.294,-23.863728,-20.211649,-11.878065
00:53:25.308,-23.62295,-20.211649,-11.706905
00:53:25.322,-23.397953,-19.525064,-11.560947
00:53:25.336,-23.15545,-19.525064,-11.392534
00:53:25.350,-22.912386,-19.122929,-11.226804
00:53:25.367,-22.639378,-19.122929,-11.02556
00:53:25.381,-22.388073,-18.864851,-10.846158
00:53:25.393,-22.166912,-18.864851,-10.692385
00:53:25.410,-21.864492,-18.178019,-10.465201
00:53:25.422,-21.633606,-18.178019,-10.304836
00:53:25.437,-21.354696,-18.00395,-10.094309
00:53:25.466,-20.902557,-18.00395,-9.701324
00:53:25.469,-20.789568,-18.00395,-9.645184
00:53:25.496,-20.349148,-17.417774,-9.264586
00:53:25.508,-20.089205,-15.604569,-9.096165
00:53:25.522,-19.806952,-15.604569,-8.8996725
00:53:25.537,-19.536509,-16.205997,-8.697199
00:53:25.550,-19.271475,-16.205997,-8.494725
00:53:25.564,-18.993948,-15.567474,-8.287125
00:53:25.579,-18.70744,-15.567474,-8.064695
00:53:25.593,-18.410498,-14.367645,-7.850259
00:53:25.607,-18.119495,-14.367645,-7.6358223
00:53:25.624,-17.779299,-13.970303,-7.37336
00:53:25.636,-17.521557,-13.970303,-7.1880927
00:53:25.650,-17.231064,-12.90923,-6.9857993
00:53:25.664,-16.91588,-12.90923,-6.752384
00:53:25.678,-16.606276,-11.942971,-6.5379477
00:53:25.693,-16.287851,-11.942971,-6.3081946
00:53:25.707,-16.002863,-12.587693,-6.092904
00:53:25.722,-15.708504,-12.587693,-5.8622355
00:53:25.736,-15.406247,-11.689231,-5.6358366
00:53:25.752,-15.07834,-11.689231,-5.3770947
00:53:25.764,-14.783807,-9.501542,-5.1903625
00:53:25.778,-14.464664,-9.501542,-4.9725084
00:53:25.795,-14.086184,-7.58776,-4.726648
00:53:25.808,-13.786138,-7.58776,-4.553099
00:53:25.821,-13.496483,-7.7172866,-4.3813877
00:53:25.837,-13.200602,-7.7172866,-4.197411
00:53:25.850,-12.956467,-8.319106,-4.0479164
00:53:25.865,-12.70675,-8.319106,-3.8877432
00:53:25.890,-12.357381,-8.319106,-3.620788
00:53:25.893,-12.232353,-7.666717,-3.5889366
00:53:25.907,-11.99797,-7.0847745,-3.4548225
00:53:25.932,-11.674394,-7.0847745,-3.224913
00:53:25.935,-11.5259905,-5.9523935,-3.1902566
00:53:25.949,-11.295648,-5.9523935,-3.06896
00:53:25.963,-11.090606,-6.1915607,-2.9638987
00:53:25.977,-10.897018,-6.1915607,-2.8663418
00:53:25.991,-10.70307,-6.5807385,-2.7565227
00:53:26.008,-10.505825,-6.5807385,-2.6393824
00:53:26.021,-10.324478,-7.298289,-2.5197947
00:53:26.035,-10.146758,-7.298289,-2.400207
00:53:26.049,-9.952438,-7.2954874,-2.2601116
00:53:26.063,-9.762005,-7.2954874,-2.120016
00:53:26.077,-9.520723,-6.6561484,-1.937196
00:53:26.092,-9.27147,-6.6561484,-1.7413174
00:53:26.108,-8.9789095,-4.7856956,-1.5343332
00:53:26.126,-8.679523,-4.7856956,-1.3144126
00:53:26.140,-8.436925,0.4917791,-1.254032
00:53:26.154,-8.203123,0.4917791,-1.1976768
00:53:26.169,-8.105425,-2.4188437,-1.2160316
00:53:26.184,-8.008482,-2.4188437,-1.2331626
00:53:26.198,-7.9890375,-8.415942,-1.2050056
00:53:26.211,-7.969982,-8.415942,-1.1768486
00:53:26.225,-7.849519,-4.1638904,-1.1316018
00:53:26.240,-7.7314644,-4.1638904,-1.086355
00:53:26.253,-7.622312,-5.370193,-1.0231638
00:53:26.267,-7.5153427,-5.370193,-0.9599726
00:53:26.283,-7.3904533,-2.082028,-0.9434182
00:53:26.296,-7.271103,-2.082028,-0.92996776
00:53:26.311,-7.2045865,-3.7188084,-0.9345896
00:53:26.326,-7.1394005,-3.7188084,-0.9392115
00:53:26.340,-7.036388,-1.9091309,-0.9408367
00:53:26.354,-6.935681,-1.9091309,-0.942712
00:53:26.369,-6.9060397,-5.5411663,-0.9409252
00:53:26.382,-6.8772244,-5.5411663,-0.9393766
00:53:26.399,-6.8102164,-3.270155,-0.9446147
00:53:26.412,-6.7430387,-3.270155,-0.94831216
00:53:26.424,-6.6765847,-3.3018277,-0.95073086
00:53:26.439,-6.611825,-3.3018277,-0.95352167
00:53:26.455,-6.571314,-4.4404078,-0.9564985
00:53:26.468,-6.531066,-4.4404078,-0.9589172
00:53:26.486,-6.4923525,-4.4404078,-0.9620801
00:53:26.501,-6.4405136,-3.8502398,-0.96310383
00:53:26.512,-6.3893356,-3.8502398,-0.9637436
00:53:26.526,-6.33692,-3.8502398,-0.9620759
00:53:26.541,-6.285319,-3.8502398,-0.9601699
00:53:26.553,-6.2318883,-3.5761695,-0.9609377
00:53:26.567,-6.1796517,-3.5761695,-0.9618334
00:53:26.583,-6.1357737,-3.887727,-0.9638337
00:53:26.596,-6.0924053,-3.887727,-0.9654589
00:53:26.610,-6.048915,-3.832095,-0.96720916
00:53:26.624,-6.006171,-3.832095,-0.9688344
00:53:26.638,-5.96561,-3.8504615,-0.9714391
00:53:26.652,-5.926042,-3.8504615,-0.97422993
00:53:26.666,-5.888758,-3.8504615,-0.97854364
00:53:26.681,-5.852522,-3.8504615,-0.9831655
00:53:26.696,-5.8170104,-3.8504615,-0.98778737
00:53:26.710,-5.775087,-3.5931897,-0.9903921
00:53:26.731,-5.739538,-3.8690047,-0.99301744
00:53:26.739,-5.703108,-3.8690047,-0.9940176
00:53:26.754,-5.6660986,-3.8504615,-0.9940618
00:53:26.769,-5.6298265,-3.8504615,-0.9941031
00:53:26.783,-5.58789,-3.575675,-0.9932318
00:53:26.798,-5.5467925,-3.575675,-0.9923605
00:53:26.812,-5.515052,-3.832095,-0.9949652
00:53:26.827,-5.484128,-3.832095,-0.997756
00:53:26.841,-5.45103,-3.5759635,-1.0029242
00:53:26.855,-5.418594,-3.5759635,-1.0080924
00:53:26.868,-5.389597,-3.8502398,-1.010511
00:53:26.883,-5.361545,-3.8502398,-1.0133018
00:53:26.897,-5.3321013,-3.8874989,-1.0133401
00:53:26.910,-5.30325,-3.8874989,-1.0133814
00:53:26.930,-5.294413,-4.460916,-1.0215551
00:53:26.938,-5.2815375,-4.460916,-1.0254269
00:53:26.953,-5.232974,-2.8063364,-1.0263866
00:53:26.967,-5.185256,-2.8063364,-1.0272183
00:53:26.982,-5.163394,-4.3769426,-1.0214062
00:53:27.059,-5.120253,-4.3769426,-0.99343485
00:53:27.067,-5.102576,-4.1634507,-0.9949233
00:53:27.081,-5.086346,-4.1634507,-0.997528
00:53:27.095,-5.074309,-4.3987055,-0.99927825
00:53:27.110,-5.062635,-4.3987055,-1.0011535
00:53:27.124,-5.028297,-3.3018277,-1.0020492
00:53:27.140,-4.9947085,-3.3018277,-1.003009
00:53:27.153,-4.980311,-4.356532,-1.0013412
00:53:27.168,-4.9660845,-4.356532,-0.9995544
00:53:27.183,-4.94317,-4.356532,-0.9886123
00:53:27.195,-4.9228587,-4.356532,-0.9798586
00:53:27.211,-4.891687,-4.606092,-0.9545151
00:53:27.225,-4.864243,-4.606092,-0.93233955
00:53:27.238,-4.8132973,-3.5592263,-0.90698725
00:53:27.252,-4.76146,-3.5592263,-0.87968475
00:53:27.267,-4.710258,-4.0833564,-0.8412768
00:53:27.280,-4.6650987,-4.0833564,-0.80798995
00:53:27.294,-4.6095705,-5.0269146,-0.7439443
00:53:27.309,-4.5506697,-5.0269146,-0.67532396
00:53:27.322,-4.483995,-7.1247354,-0.5547568
00:53:27.336,-4.4095654,-7.1247354,-0.42491525
00:53:27.351,-4.2299004,-7.6262717,-0.17593603
00:53:27.364,-4.0863614,-7.6262717,0.039845973
00:53:27.380,-3.8030407,-4.6147203,0.33973148
00:53:27.394,-3.5043943,-4.6147203,0.6610374
00:53:27.408,-3.1384444,-4.6743417,1.0583321
00:53:27.428,-2.6500306,-4.6743417,1.5880582
00:53:27.438,-2.430951,-4.6743417,1.8529214
00:53:27.451,-2.0359569,-1.8469051,2.2440574
00:53:27.467,-1.5046641,0.2702491,2.7391274
00:53:27.480,-1.0749663,0.2702491,3.1413717
00:53:27.494,-0.60087883,0.2727855,3.5976293
00:53:27.510,-0.072397076,0.2727855,4.1190667
00:53:27.523,0.3661282,1.3631707,4.5372443
00:53:27.536,0.8641854,1.3631707,5.025118
00:53:27.552,1.491314,2.6506612,5.6285863
00:53:27.565,1.9950129,2.6506612,6.1189046
00:53:27.579,2.5385218,2.928732,6.65445
00:53:27.595,3.232648,2.928732,7.3547783
00:53:27.607,3.7748802,4.6497083,7.879157
00:53:27.622,4.3919168,4.6497083,8.490932
00:53:27.635,5.1154537,9.461318,9.125779
00:53:27.649,5.8245206,9.461318,9.760626
00:53:27.663,6.6076274,13.49557,10.403163
00:53:27.677,7.375072,13.49557,11.0457
00:53:27.698,8.382034,12.027787,11.978258
00:53:27.707,8.911903,12.027787,12.444537
00:53:27.721,9.689473,14.840631,13.1169815
00:53:27.735,10.451491,14.840631,13.789426
00:53:27.749,11.255125,16.51101,14.485796
00:53:27.765,12.140178,16.51101,15.281648
00:53:27.780,12.958823,17.903566,15.99938
00:53:27.794,13.761096,17.903566,16.717112
00:53:27.810,14.698047,17.903566,17.588644
00:53:27.823,15.426831,20.633642,18.211166
00:53:27.836,16.24272,20.633642,18.937443
00:53:27.853,17.263636,24.532616,19.810013
00:53:27.864,17.993828,26.43661,20.367903
00:53:27.877,18.808823,26.43661,21.027227
00:53:27.892,19.682098,27.052542,21.750086
00:53:27.905,20.537909,27.052542,22.472944
00:53:27.919,21.47646,32.29657,23.190676
00:53:27.934,22.396238,32.29657,23.908407
00:53:27.948,23.38026,35.4865,24.645363
00:53:27.962,24.296453,35.4865,25.333187
00:53:27.976,25.196087,37.542637,25.98085
00:53:27.990,26.077728,37.542637,26.628513
00:53:28.004,26.93776,39.9816,27.222343
00:53:28.018,27.78059,39.9816,27.816174
00:53:28.032,28.581646,40.8292,28.36728
00:53:28.046,29.36668,40.8292,28.918385
00:53:28.060,30.132095,41.847553,29.44471
00:53:28.074,30.882202,41.847553,29.971035
00:53:28.090,31.706104,43.990788,30.54423
00:53:28.104,32.443314,43.990788,31.045774
00:53:28.119,33.180614,43.784737,31.566666
00:53:28.134,33.903168,43.784737,32.087555
00:53:28.148,34.588455,44.596752,32.568592
00:53:28.162,35.260036,44.596752,33.04963
00:53:28.176,35.956886,48.415756,33.492214
00:53:28.189,36.608818,48.415756,33.903187
00:53:28.203,37.293686,51.30094,34.302193
00:53:28.217,37.964855,51.30094,34.7012
00:53:28.233,38.597366,50.661366,35.087505
00:53:28.246,39.16675,50.661366,35.422306
00:53:28.260,39.749985,50.661366,35.78286
00:53:28.274,40.320522,52.353546,36.107826
00:53:28.294,40.98581,52.353546,36.54112
00:53:28.306,41.44671,52.353546,36.77943
00:53:28.318,41.920994,53.53802,37.016636
00:53:28.334,42.42156,53.53802,37.290333
00:53:28.347,42.82423,52.059597,37.504528
00:53:28.361,43.25114,52.059597,37.751675
00:53:28.373,43.61681,51.344044,37.95965
00:53:28.389,44.02612,51.344044,38.219612
00:53:28.403,44.459133,52.445118,38.489647
00:53:28.418,44.883488,52.445118,38.75968
00:53:28.431,45.305252,55.476334,38.973877
00:53:28.446,45.750874,55.476334,39.221024
00:53:28.461,46.17574,57.127113,39.422394
00:53:28.474,46.565796,57.127113,39.596916
00:53:28.488,46.897728,55.25089,39.758373
00:53:28.502,47.223022,55.25089,39.91983
00:53:28.516,47.54181,55.25089,40.081287
00:53:28.530,47.834732,54.402298,40.24018
00:53:28.545,48.13869,54.953815,40.405056
00:53:28.558,48.43657,54.953815,40.56993
00:53:28.572,48.736572,55.315964,40.73566
00:53:28.587,49.030575,55.315964,40.90139
00:53:28.601,49.376328,58.290318,41.065224
00:53:28.614,49.69376,58.290318,41.207214
00:53:28.629,49.99518,58.73748,41.33022
00:53:28.642,50.29057,58.73748,41.453224
00:53:28.656,50.556225,58.383503,41.55914
00:53:28.671,50.82398,58.383503,41.67262
00:53:28.684,51.050373,57.907707,41.759068
00:53:28.699,51.28527,57.907707,41.858814
00:53:28.713,51.50743,57.454754,41.959602
00:53:28.727,51.718094,57.454754,42.053192
00:53:28.741,51.940964,56.897343,42.17491
00:53:28.755,52.151424,56.897343,42.288517
00:53:28.770,52.380287,57.585358,42.41115
00:53:28.785,52.604572,57.585358,42.533787
00:53:28.799,52.822044,57.283543,42.66021
00:53:28.813,53.035168,57.283543,42.786633
00:53:28.827,53.271065,57.83984,42.92929
00:53:28.841,53.502247,57.83984,43.07195
00:53:28.855,53.76074,59.311016,43.21717
00:53:28.870,54.01406,59.311016,43.362392
00:53:28.883,54.26584,60.031334,43.496506
00:53:28.897,54.51258,60.031334,43.63062
00:53:28.911,54.75212,60.54617,43.751915
00:53:28.925,54.986874,60.54617,43.87321
00:53:28.939,55.218163,61.90565,43.968018
00:53:28.954,55.45146,61.90565,44.069595
00:53:28.967,55.653965,62.77915,44.126686
00:53:28.981,55.85672,62.77915,44.188168
00:53:28.996,56.038116,64.384384,44.199234
00:53:29.010,56.215885,64.384384,44.2103
00:53:29.023,56.332836,64.49397,44.160698
00:53:29.038,56.443977,64.49397,44.10755
00:53:29.052,56.504105,63.378895,44.027374
00:53:29.066,56.550938,63.378895,43.93486
00:53:29.080,56.54459,61.30185,43.831425
00:53:29.094,56.53837,61.30185,43.72799
00:53:29.109,56.494404,60.174286,43.608925
00:53:29.123,56.4591,60.174286,43.4978
00:53:29.138,56.4185,60.936188,43.365
00:53:29.152,56.38739,60.936188,43.24106
00:53:29.166,56.34893,62.673084,43.073536
00:53:29.180,56.31124,62.673084,42.906013
00:53:29.194,56.230347,63.950413,42.66757
00:53:29.208,56.15107,63.950413,42.429123
00:53:29.222,55.998558,63.684456,42.119755
00:53:29.236,55.8491,63.684456,41.810387
00:53:29.250,55.58039,59.917427,41.453167
00:53:29.265,55.292053,59.917427,41.07043
00:53:29.279,55.03449,59.917427,40.71321
00:53:29.293,54.726566,56.397255,40.371193
00:53:29.308,54.347454,56.397255,39.95025
00:53:29.321,54.02256,54.239487,39.620926
00:53:29.336,53.664783,54.97749,39.23636
00:53:29.351,53.31416,54.97749,38.85179
00:53:29.362,53.07105,54.97749,38.56978
00:53:29.377,52.711193,54.953815,38.164154
00:53:29.392,52.314568,53.78723,37.737473
00:53:29.407,51.925873,53.78723,37.31079
00:53:29.422,51.51133,53.407223,36.85756
00:53:29.437,51.10508,53.407223,36.404327
00:53:29.451,50.68347,51.715614,35.96166
00:53:29.466,50.23931,51.715614,35.48737
00:53:29.480,49.787193,50.07778,35.02932
00:53:29.494,49.344116,50.07778,34.57127
00:53:29.508,48.874954,49.1678,34.09613
00:53:29.522,48.415176,49.1678,33.62099
00:53:29.536,47.907513,47.23494,33.127052
00:53:29.551,47.410004,47.23494,32.633114
00:53:29.564,46.86891,44.9771,32.13063
00:53:29.578,46.338642,44.9771,31.628147
00:53:29.592,45.79241,43.816227,31.122246
00:53:29.610,45.11545,43.816227,30.471802
00:53:29.622,44.62979,42.080067,30.038172
00:53:29.636,44.11843,42.080067,29.568407
00:53:29.650,43.522182,41.673237,29.009892
00:53:29.663,43.010838,41.673237,28.525845
00:53:29.678,42.383583,39.508907,27.957258
00:53:29.692,41.84317,39.508907,27.464483
00:53:29.706,41.183506,36.81053,26.894066
00:53:29.720,40.574303,36.81053,26.361675
00:53:29.735,39.91934,35.642017,25.794004
00:53:29.750,39.277473,35.642017,25.226334
00:53:29.764,38.647095,33.133896,24.70847
00:53:29.779,37.993073,33.133896,24.153616
00:53:29.793,37.38474,32.36566,23.647715
00:53:29.807,36.788574,32.36566,23.141813
00:53:29.821,36.192318,32.141766,22.628222
00:53:29.835,35.607986,32.141766,22.11463
00:53:29.849,35.000748,30.914516,21.590784
00:53:29.863,34.405655,30.914516,21.066938
00:53:29.877,33.7591,27.788307,20.542238
00:53:29.891,33.12548,27.788307,20.017538
00:53:29.905,32.47874,26.163809,19.499674
00:53:29.920,31.844934,26.163809,18.98181
00:53:29.934,31.149076,23.701468,18.437943
00:53:29.948,30.502666,23.701468,17.930332
00:53:29.962,29.8815,21.99624,17.470089
00:53:29.977,29.203367,21.99624,16.93904
00:53:29.990,28.579622,21.591057,16.457918
00:53:30.005,27.934673,21.591057,1.59E+01
00:53:30.019,27.320007,20.357632,15.469857
00:53:30.033,26.717636,20.357632,14.997282
00:53:30.047,26.1103,19.75827,14.51958
00:53:30.061,25.51511,19.75827,14.041878
00:53:30.075,24.88623,17.813461,13.55734
00:53:30.090,24.236012,17.813461,13.038192
00:53:30.105,23.580675,16.055134,12.536439
00:53:30.121,22.905664,16.055134,12.001236
00:53:30.135,22.29835,14.565677,11.551732
00:53:30.149,21.70318,14.565677,11.102228
00:53:30.163,21.107246,13.764811,10.656142
00:53:30.177,20.523232,13.764811,10.210056
00:53:30.194,19.85204,13.353207,9.671493
00:53:30.206,19.349503,13.353207,9.29133
00:53:30.219,18.784302,10.647657,8.892183
00:53:30.235,18.170227,10.647657,8.431629
00:53:30.247,17.613914,8.435382,8.0626335
00:53:30.261,17.04091,8.435382,7.665253
00:53:30.275,16.49086,7.6283975,7.296071
00:53:30.290,15.951812,7.6283975,6.926889
00:53:30.303,15.424981,6.6115494,6.5799236
00:53:30.318,14.884399,6.6115494,6.208175
00:53:30.332,14.357389,4.0278654,5.8919716
00:53:30.346,13.863054,4.0278654,5.5983543
00:53:30.361,13.371146,3.75985,5.3025947
00:53:30.375,12.889077,3.75985,5.006835
00:53:30.389,12.452074,3.8113186,4.7461734
00:53:30.403,12.023811,3.8113186,4.485512
00:53:30.416,11.648119,5.293648,4.239502
00:53:30.431,11.242849,5.293648,3.9556444
00:53:30.446,10.813354,4.4845524,3.6553073
00:53:30.460,10.412069,4.4845524,3.3749926
00:53:30.474,9.965343,1.6437265,3.098096
00:53:30.488,9.527553,1.6437265,2.8211992
00:53:30.502,9.100275,0.8104108,2.5631013
00:53:30.516,8.681542,0.8104108,2.3050034
00:53:30.530,8.285935,0.5430656,2.0674133
00:53:30.544,7.89824,0.5430656,1.8298233
00:53:30.558,7.532559,0,1.617868
00:53:30.573,7.1593547,0,1.3907729
00:53:30.587,6.8295093,0,1.200305
00:53:30.601,6.477544,0,0.9805342
00:53:30.615,6.148194,-0.27406198,0.78225076
00:53:30.631,5.811551,-0.27406198,0.5698042
00:53:30.644,5.492071,-1.1016934,0.38489038
00:53:30.658,5.151101,-1.1016934,0.17152831
00:53:30.673,4.809576,-0.84236234,-0.05465114
00:53:30.686,4.5192127,-0.84236234,-0.2355947
00:53:30.702,4.1273313,-1.9551004,-0.503345
00:53:30.716,3.7895925,-1.9551004,-0.72384524
00:53:30.732,3.463726,-3.9360006,-0.8986971
00:53:30.746,3.1765058,-3.9360006,-1.0407642
00:53:30.760,2.9346428,-8.331304,-1.0527103
00:53:30.774,2.6983974,-8.331304,-1.0638599
00:53:30.788,2.55025,-5.0419087,-1.0570652
00:53:30.803,2.4055414,-5.0419087,-1.0497853
00:53:30.816,2.2986524,-1.6928964,-1.0752141
00:53:30.831,2.1919842,-1.6928964,-1.1025991
00:53:30.845,2.0511975,-3.8133852,-1.1237005
00:53:30.858,1.9159839,-3.8133852,-1.1419883
00:53:30.872,1.8004457,-2.2678435,-1.1745002
00:53:30.887,1.6849424,-2.2678435,-1.2093345
00:53:30.901,1.5245969,-4.8530426,-1.2395241
00:53:30.915,1.3629067,-4.8530426,-1.2743584
00:53:30.929,1.2678983,-3.1342719,-1.2795266
00:53:30.943,1.1747901,-3.1342719,-1.2846948
00:53:30.957,1.0859382,-3.0564368,-1.2890085
00:53:30.972,0.9985613,-3.0564368,-1.2936304
00:53:30.987,0.91293204,-3.0564368,-1.2982522
00:53:31.000,0.79996985,-4.6944237,-1.299084
00:53:31.015,0.6891415,-4.6944237,-1.3000437
00:53:31.031,0.60125697,-3.5592263,-1.3030206
00:53:31.043,0.52793735,-3.0271056,-1.3037884
00:53:31.058,0.45589602,-3.0271056,-1.3047482
00:53:31.070,0.36864564,-3.8690047,-1.305516
00:53:31.085,0.28295216,-3.8690047,-1.3064758
00:53:31.101,0.2115317,-3.2857642,-1.306523
00:53:31.115,0.14154541,-3.2857642,-1.3065642
00:53:31.128,0.065253876,-3.5933988,-1.3081894
00:53:31.142,-0.009634346,-3.5933988,-1.3099396
00:53:31.157,-0.07821084,-3.3017135,-1.3127304
00:53:31.170,-0.14505114,-3.3017135,-1.3151491
00:53:31.184,-0.22889665,-4.4190493,-1.3134813
00:53:31.199,-0.31094852,-4.4190493,-1.3116945
00:53:31.212,-0.38040435,-3.3153117,-1.3212543
00:53:31.226,-0.4491917,-3.3153117,-1.3315494
00:53:31.241,-0.46550277,-1.3971643,-1.328847
00:53:31.254,-0.48184076,-1.3971643,-1.326505
00:53:31.269,-0.5359763,-3.27034,-1.3248372
00:53:31.283,-0.5889124,-3.27034,-1.3230504
00:53:31.297,-0.644174,-3.116836,-1.3278494
00:53:31.311,-0.698692,-3.116836,-1.3330176
00:53:31.324,-0.75580126,-3.3009143,-1.3381858
00:53:31.339,-0.8117683,-3.3009143,-1.343354
00:53:31.353,-0.8676555,-3.5591042,-1.3443137
00:53:31.367,-0.92236227,-3.5591042,-1.3452095
00:53:31.381,-0.98170996,-3.887727,-1.3452507
00:53:31.396,-1.0398736,-3.887727,-1.345295
00:53:31.411,-1.0927777,-3.5931897,-1.3471702
00:53:31.426,-1.1446238,-3.5931897,-1.3490455
00:53:31.440,-1.1873347,-3.026931,-1.3542137
00:53:31.454,-1.2291913,-3.026931,-1.3593819
00:53:31.469,-1.2712005,-3.2857642,-1.3602777
00:53:31.482,-1.3123696,-3.2857642,-1.3611734
00:53:31.496,-1.3608906,-3.6107948,-1.3637781
00:53:31.510,-1.4084413,-3.6107948,-1.3663828
00:53:31.524,-1.4538556,-3.5933988,-1.3681331
00:53:31.539,-1.4983617,-3.5933988,-1.3698833
00:53:31.552,-1.5449827,-3.5761695,-1.3750515
00:53:31.566,-1.5906712,-3.5761695,-1.3802197
00:53:31.580,-1.6404607,-3.8687797,-1.3845334
00:53:31.594,-1.6892545,-3.8687797,-1.3888471
00:53:31.608,-1.7235372,-3.3176267,-1.3905973
00:53:31.623,-1.7571342,-3.3176267,-1.3923476
00:53:31.637,-1.7877419,-3.2855017,-1.3923888
00:53:31.653,-1.8177433,-3.2855017,-1.392436
00:53:31.665,-1.8466734,-3.3012567,-1.3916808
00:53:31.679,-1.8749679,-3.3012567,-1.3908676
00:53:31.693,-1.9060555,-3.3017135,-1.3934723
00:53:31.707,-1.9365212,-3.3017135,-1.396077
00:53:31.721,-1.9937872,-4.714065,-1.3978273
00:53:31.736,-2.0500305,-4.714065,-1.3997025
00:53:31.751,-2.076898,-3.3015232,-1.4015778
00:53:31.766,-2.1032283,-3.3015232,-1.4034531
00:53:31.786,-2.1318085,-3.3499174,-1.4071741
00:53:31.795,-2.1578116,-3.3499174,-1.4088486
00:53:31.808,-2.1807296,-3.3018277,-1.4088869
00:53:31.822,-2.203192,-3.3018277,-1.4089282
00:53:31.836,-2.2335389,-3.5928972,-1.4115329
00:53:31.850,-2.2632787,-3.5928972,-1.4141376
00:53:31.864,-2.280267,-3.026931,-1.4158878
00:53:31.878,-2.2969155,-3.026931,-1.4176381
00:53:31.892,-2.3280303,-3.850639,-1.4176793
00:53:31.906,-2.358523,-3.850639,-1.4177206
00:53:31.920,-2.3887727,-3.8690047,-1.4177618
00:53:31.935,-2.4184177,-3.8690047,-1.42E+00
00:53:31.949,-2.437799,-3.3017135,-1.4195533
00:53:31.963,-2.4567926,-3.3017135,-1.4213035
00:53:31.977,-2.4682422,-3.0271056,-1.4213477
00:53:31.991,-2.47946,-3.0271056,-1.421389
00:53:32.005,-2.501492,-3.2859519,-1.4274117
00:53:32.019,-2.5230834,-3.2859519,-1.4334344
00:53:32.033,-2.5438309,-3.3490827,-1.4377481
00:53:32.047,-2.5641632,-3.3490827,-1.4420618
00:53:32.061,-2.5890949,-3.8505945,-1.4412485
00:53:32.076,-2.6134708,-3.8505945,-1.4403772
00:53:32.091,-2.6425552,-4.244977,-1.4367594
00:53:32.105,-2.6712945,-4.244977,-1.4333826
00:53:32.119,-2.6763635,-2.713379,-1.4376963
00:53:32.133,-2.6813312,-2.713379,-1.44201
00:53:32.147,-2.7174444,-4.066273,-1.4505962
00:53:32.161,-2.7528353,-4.066273,-1.4591824
00:53:32.175,-2.7920039,-4.1230574,-1.4711865
00:53:32.189,-2.830389,-4.1230574,-1.4831907
00:53:32.203,-2.843163,-2.7134094,-1.4986128
00:53:32.220,-2.8589203,-2.7134094,-1.5173396
00:53:32.232,-2.8846216,-3.3168159,-1.5342207
00:53:32.246,-2.9111876,-3.3168159,-1.5525085
00:53:32.260,-2.9408927,-3.3176267,-1.5745254
00:53:32.274,-2.9685652,-3.3176267,-1.5950744
00:53:32.287,-3.0118074,-4.7400055,-1.6030473
00:53:32.302,-3.0553868,-4.7400055,-1.6122468
00:53:32.316,-3.0808997,-3.7428255,-1.6242509
00:53:32.330,-3.1050622,-3.7428255,-1.6353976
00:53:32.344,-3.1433072,-4.028219,-1.6555834
00:53:32.358,-3.1794686,-4.028219,-1.6744235
00:53:32.373,-3.1945944,-2.9288583,-1.6949725
00:53:32.388,-3.2122946,-2.9288583,-1.7184572
00:53:32.402,-3.0652874,10.33687,-1.8449633
00:53:32.416,-2.9212203,10.33687,-1.9714694
00:53:32.431,-2.9711485,-3.8901951,-2.0026414
00:53:32.445,-3.0180416,-3.8901951,-2.0317354
00:53:32.459,-3.086217,-6.6341324,-2.0275042
00:53:32.474,-3.1530287,-6.6341324,-2.023273
00:53:32.487,-3.1734552,-3.9629822,-2.0275867
00:53:32.501,-3.1934733,-3.9629822,-2.0319004
00:53:32.515,-3.2133422,-2.4263563,-2.0678303
00:53:32.529,-3.2328138,-2.4263563,-2.1037602
00:53:32.544,-3.2762506,-3.3928654,-2.144817
00:53:32.557,-3.3188186,-3.3928654,-2.185874
00:53:32.571,-3.354592,-3.472533,-2.2192404
00:53:32.586,-3.38965,-3.472533,-2.2526069
00:53:32.600,-3.4315708,-4.631171,-2.270046
00:53:32.614,-3.4715137,-4.631171,-2.2863226
00:53:32.628,-3.4809296,-3.5634599,-2.2940543
00:53:32.642,-3.4901571,-3.5634599,-2.301786
00:53:32.656,-3.5181656,-4.3443832,-2.3129327
00:53:32.672,-3.5481346,-4.3443832,-2.3266518
00:53:32.685,-3.5982127,-4.8448963,-2.3512874
00:53:32.698,-3.6491463,-4.8448963,-2.3778179
00:53:32.713,-3.6950846,-4.014879,-2.4172297
00:53:32.727,-3.737529,-4.014879,-2.454014
00:53:32.742,-3.7915776,-4.6433635,-2.4906793
00:53:32.757,-3.8445451,-4.6433635,-2.5273445
00:53:32.771,-3.912722,-6.3302355,-2.5461845
00:53:32.786,-3.9808543,-6.3302355,-2.5663702
00:53:32.800,-4.01874,-5.2123203,-2.5798974
00:53:32.813,-4.056888,-5.2123203,-2.594465
00:53:32.829,-4.082733,-4.6740565,-2.608242
00:53:32.841,-4.106261,-4.6740565,-2.6201823
00:53:32.855,-4.141068,-5.1746736,-2.6338954
00:53:32.869,-4.175179,-5.1746736,-2.6476085
00:53:32.883,-4.2120113,-5.4704385,-2.6587582
00:53:32.897,-4.248107,-5.4704385,-2.6699078
00:53:32.912,-4.2661576,-4.924157,-2.6745296
00:53:32.927,-4.2835455,-4.924157,-2.6788433
00:53:32.940,-4.322155,-6.588817,-2.671194
00:53:32.955,-4.3599925,-6.588817,-2.663545
00:53:32.969,-4.3700037,-5.193483,-2.6567502
00:53:32.983,-4.3798146,-5.193483,-2.6499555
00:53:32.997,-4.394182,-5.185758,-2.6481686
00:53:33.011,-4.4083796,-5.185758,-2.6465008
00:53:33.025,-4.4170127,-4.62866,-2.6508145
00:53:33.039,-4.425473,-4.62866,-2.6551282
00:53:33.054,-4.452965,-5.708151,-2.6570034
00:53:33.069,-4.4799066,-5.708151,-2.6588786
00:53:33.084,-4.493663,-5.4347,-2.6534295
00:53:33.098,-4.5075,-5.4347,-2.6483438
00:53:33.112,-4.515467,-5.4481354,-2.6372766
00:53:33.126,-4.523275,-5.4481354,-2.6262095
00:53:33.140,-4.496448,-3.7242227,-2.6151423
00:53:33.155,-4.4693832,-3.7242227,-2.6032846
00:53:33.168,-4.462944,-4.5732284,-2.594595
00:53:33.182,-4.455979,-4.5732284,-2.5852368
00:53:33.196,-4.4423194,-3.9803271,-2.5810056
00:53:33.210,-4.428933,-3.9803271,-2.5767744
00:53:33.224,-4.431506,-4.2624626,-2.582797
00:53:33.239,-4.4340277,-4.2624626,-2.5888197
00:53:33.253,-4.427345,-4.0559807,-2.5897155
00:53:33.266,-4.4207954,-4.0559807,-2.5906112
00:53:33.281,-4.4425745,-5.5524387,-2.5897398
00:53:33.295,-4.463975,-5.5524387,-2.5889266
00:53:33.309,-4.457882,-4.235219,-2.587378
00:53:33.324,-4.451561,-4.235219,-2.585472
00:53:33.337,-4.4558115,-4.7399864,-2.5839236
00:53:33.352,-4.459744,-4.7399864,-2.5821366
00:53:33.367,-4.4630346,-4.756695,-2.5794342
00:53:33.382,-4.4662595,-4.756695,-2.5767317
00:53:33.395,-4.46922,-5.001226,-2.5688355
00:53:33.410,-4.4709315,-5.001226,-2.5597243
00:53:33.425,-4.463013,-4.4317274,-2.5524442
00:53:33.438,-4.456204,-4.4317274,-2.546135
00:53:33.452,-4.462466,-5.2278366,-2.5367768
00:53:33.467,-4.467947,-5.2278366,-2.52675
00:53:33.480,-4.468406,-4.955573,-2.517267
00:53:33.494,-4.4681416,-4.955573,-2.5070543
00:53:33.508,-4.4660845,-4.9494233,-2.4951327
00:53:33.522,-4.4640684,-4.9494233,-2.483211
00:53:33.536,-4.4615073,-4.710821,-2.4755619
00:53:33.550,-4.4589977,-4.710821,-2.4679127
00:53:33.565,-4.446667,-3.8851593,-2.4670413
00:53:33.578,-4.4346967,-3.8851593,-2.4662862
00:53:33.593,-4.444843,-4.6468835,-2.4723089
00:53:33.607,-4.454786,-4.6468835,-2.4783316
00:53:33.621,-4.45611,-4.4291153,-2.4802067
00:53:33.635,-4.4571624,-4.4291153,-2.481832
00:53:33.649,-4.4657927,-4.9762397,-2.480045
00:53:33.663,-4.474367,-4.9762397,-2.4783773
00:53:33.679,-4.486059,-5.487328,-2.4696355
00:53:33.693,-4.4985886,-5.487328,-2.4619863
00:53:33.708,-4.501057,-4.6647215,-2.461115
00:53:33.723,-4.5034766,-4.6647215,-2.4602435
00:53:33.737,-4.5177026,-5.7570405,-2.4491763
00:53:33.751,-4.531644,-5.7570405,-2.4381092
00:53:33.765,-4.5151896,-3.916255,-2.433878
00:53:33.779,-4.4990644,-3.916255,-2.4296467
00:53:33.793,-4.4910827,-3.8885777,-2.4339604
00:53:33.807,-4.4832606,-3.8885777,-2.4382741
00:53:33.821,-4.508786,-5.255062,-2.4485693
00:53:33.835,-4.533801,-5.255062,-2.4588645
00:53:33.849,-4.516537,-3.333629,-2.4657416
00:53:33.863,-4.4996185,-3.333629,-2.4726188
00:53:33.878,-4.492993,-4.668735,-2.4624062
00:53:33.891,-4.4865,-4.668735,-2.4521935
00:53:33.905,-4.475429,-4.642738,-2.4377084
00:53:33.920,-4.46458,-4.642738,-2.4232233
00:53:33.934,-4.473992,-4.5981784,-2.4301004
00:53:33.948,-4.4836965,-4.5981784,-2.4374688
00:53:33.962,-4.4985027,-4.9288855,-2.4434915
00:53:33.976,-4.513013,-4.9288855,-2.4495142
00:53:33.990,-4.5048795,-4.2988667,-2.4455853
00:53:34.004,-4.4963164,-4.2988667,-2.4410517
00:53:34.018,-4.504713,-4.5791483,-2.447929
00:53:34.033,-4.513423,-4.5791483,-2.4552972
00:53:34.047,-4.5149984,-4.590156,-2.4553385
00:53:34.062,-4.5165453,-4.590156,-2.4553826
00:53:34.076,-4.5060315,-4.3656654,-2.4477334
00:53:34.091,-4.495728,-4.3656654,-2.4400842
00:53:34.104,-4.4969115,-4.008569,-2.4512339
00:53:34.119,-4.498071,-4.008569,-2.4623835
00:53:34.132,-4.517464,-5.0888658,-2.4701152
00:53:34.146,-4.5364695,-5.0888658,-2.4778469
00:53:34.160,-4.4975805,-2.7993402,-2.4736156
00:53:34.174,-4.4594693,-2.7993402,-2.4693844
00:53:34.189,-4.44076,-3.521971,-2.4694257
00:53:34.202,-4.422425,-3.521971,-2.469467
00:53:34.216,-4.4135504,-3.5161126,-2.4789076
00:53:34.230,-4.4048533,-3.5161126,-2.4883482
00:53:34.244,-4.4028163,-6.2269893,-2.4490829
00:53:34.259,-4.4008203,-6.2269893,-2.4098175
00:53:34.273,-4.328188,-3.5724664,-2.3526077
00:53:34.287,-4.2530036,-3.5724664,-2.2913115
00:53:34.301,-4.215388,-3.2076018,-2.274263
00:53:34.317,-4.1761374,-3.2076018,-2.2547789
00:53:34.330,-4.197977,-7.210213,-2.2151444
00:53:34.344,-4.2163925,-7.210213,-2.172461
00:53:34.359,-4.1775017,-5.051054,-2.1157424
00:53:34.374,-4.1393886,-5.051054,-2.0590239
00:53:34.390,-4.114575,-2.5135856,-2.0668836
00:53:34.403,-4.0888133,-2.5135856,-2.0732696
00:53:34.417,-4.1223464,-5.512215,-2.0784378
00:53:34.431,-4.155209,-5.512215,-2.083606
00:53:34.445,-4.120425,-2.2883759,-2.0862107
00:53:34.459,-4.086337,-2.2883759,-2.0888155
00:53:34.473,-4.094507,-4.4928217,-2.0888567
00:53:34.487,-4.102514,-4.4928217,-2.088898
00:53:34.501,-4.1109695,-4.230168,-2.0949206
00:53:34.515,-4.119256,-4.230168,-2.1009433
00:53:34.529,-4.113514,-3.7463627,-2.1026936
00:53:34.543,-4.1078863,-3.7463627,-2.1044438
00:53:34.557,-4.1126065,-4.216234,-2.1070485
00:53:34.572,-4.1172323,-4.216234,-2.1096532
00:53:34.585,-4.1200204,-3.9615076,-2.115676
00:53:34.600,-4.123174,-3.9615076,-2.1221287
00:53:34.614,-4.121469,-3.9971592,-2.1229606
00:53:34.628,-4.119861,-3.9971592,-2.1238563
00:53:34.642,-4.122726,-3.9469044,-2.130309
00:53:34.656,-4.125112,-3.9469044,-2.1363318
00:53:34.670,-4.11465,-3.7255726,-2.1338096
00:53:34.684,-4.104397,-3.7255726,-2.1312873
00:53:34.698,-4.09144,-3.454533,-2.1313286
00:53:34.713,-4.0787454,-3.454533,-2.1313727
00:53:34.732,-4.0920806,-4.4586415,-2.137227
00:53:34.744,-4.1030354,-4.4586415,-2.1409245
00:53:34.757,-4.1044984,-3.941028,-2.1457236
00:53:34.771,-4.106294,-3.941028,-2.1508918
00:53:34.785,-4.0974755,-3.7051935,-2.1500785
00:53:34.803,-4.088605,-3.7051935,-2.149033
00:53:34.815,-4.0905905,-3.9349241,-2.1541953
00:53:34.827,-4.0925364,-3.9349241,-2.1593575
00:53:34.841,-4.107229,-4.657647,-2.1628168
00:53:34.856,-4.12187,-4.657647,-2.166523
00:53:34.869,-4.127319,-4.198064,-2.1705287
00:53:34.883,-4.1329613,-4.198064,-2.1748424
00:53:34.898,-4.1252933,-3.705641,-2.175738
00:53:34.912,-4.1177783,-3.705641,-2.1766338
00:53:34.925,-4.1194243,-4.198064,-2.176675
00:53:34.940,-4.1210403,-4.198064,-2.1767192
00:53:34.954,-4.1180563,-3.676705,-2.1827419
00:53:34.969,-4.1155534,-3.676705,-2.1891947
00:53:34.983,-4.113254,-3.9148161,-2.190945
00:53:34.998,-4.111123,-3.9148161,-2.19282
00:53:35.011,-4.105582,-3.676705,-2.1960323
00:53:35.025,-4.1003947,-3.676705,-2.1994915
00:53:35.040,-4.104264,-4.1571054,-2.2022822
00:53:35.054,-4.1078734,-4.1571054,-2.204887
00:53:35.069,-4.111618,-4.1583557,-2.2076776
00:53:35.082,-4.114923,-4.1583557,-2.2100964
00:53:35.096,-4.113866,-4.1437674,-2.2084286
00:53:35.110,-4.1128297,-4.1437674,-2.206761
00:53:35.125,-4.1123166,-3.9055681,-2.210467
00:53:35.138,-4.111329,-3.9055681,-2.2136793
00:53:35.152,-4.109258,-3.6707978,-2.2205565
00:53:35.166,-4.1072288,-3.6707978,-2.2274337
00:53:35.180,-4.107049,-3.92874,-2.230893
00:53:35.194,-4.106873,-3.92874,-2.234352
00:53:35.208,-4.108786,-4.1586213,-2.2352479
00:53:35.222,-4.110661,-4.1586213,-2.2361436
00:53:35.237,-4.1096735,-3.891783,-2.2396028
00:53:35.251,-4.108706,-3.891783,-2.243062
00:53:35.265,-4.097457,-3.4186122,-2.2456667
00:53:35.279,-4.086615,-3.4186122,-2.2484574
00:53:35.295,-4.079212,-3.9055681,-2.2445984
00:53:35.308,-4.072666,-3.9055681,-2.241463
00:53:35.323,-4.073517,-4.1579013,-2.2405915
00:53:35.338,-4.074351,-4.1579013,-2.23972
00:53:35.352,-4.074522,-4.1227417,-2.2389069
00:53:35.367,-4.0746326,-4.1227417,-2.2380354
00:53:35.381,-4.069686,-3.8671198,-2.2372222
00:53:35.396,-4.064838,-3.8671198,-2.236409
00:53:35.409,-4.064168,-3.861832,-2.2398682
00:53:35.423,-4.0635114,-3.861832,-2.2433274
00:53:35.437,-4.0639215,-4.0819917,-2.2433686
00:53:35.451,-4.0643234,-4.0819917,-2.2434099
00:53:35.465,-4.0671606,-4.1204166,-2.24516
00:53:35.479,-4.069941,-4.1204166,-2.2469103
00:53:35.493,-4.06526,-3.875716,-2.246097
00:53:35.507,-4.0606723,-3.875716,-2.2452838
00:53:35.521,-4.058449,-3.863718,-2.247034
00:53:35.536,-4.056392,-3.863718,-2.2489092
00:53:35.550,-4.0483804,-3.5761795,-2.2505345
00:53:35.563,-4.040652,-3.5761795,-2.2522848
00:53:35.578,-4.0376487,-3.8434603,-2.2532444
00:53:35.592,-4.0345798,-3.8434603,-2.2540762
00:53:35.606,-4.031321,-3.8277485,-2.254972
00:53:35.620,-4.02819,-3.8277485,-2.2559316
00:53:35.634,-4.01876,-3.5965378,-2.2551184
00:53:35.650,-4.009405,-3.5965378,-2.254189
00:53:35.664,-4.0049753,-3.8277485,-2.2533758
00:53:35.679,-4.000577,-3.8277485,-2.2525043
00:53:35.693,-3.9993944,-3.855679,-2.2542546
00:53:35.708,-3.9983578,-3.855679,-2.2561297
00:53:35.722,-3.9987733,-3.849623,-2.259589
00:53:35.736,-3.9991803,-3.849623,-2.2630482
00:53:35.750,-3.992382,-3.6153593,-2.263944
00:53:35.764,-3.9857194,-3.6153593,-2.2648396
00:53:35.778,-3.9881392,-3.8534641,-2.2700078
00:53:35.792,-3.9905105,-3.8534641,-2.275176
00:53:35.806,-3.9834309,-3.5926392,-2.2760718
00:53:35.820,-3.976493,-3.5926392,-2.2769675
00:53:35.835,-3.969425,-3.620938,-2.2770116
00:53:35.848,-3.962493,-3.620938,-2.27705
00:53:35.863,-3.9638171,-3.8591964,-2.2805092
00:53:35.877,-3.9651148,-3.8591964,-2.2839684
00:53:35.892,-3.9625976,-3.8370917,-2.2840126
00:53:35.905,-3.9601278,-3.8370917,-2.2840538
00:53:35.919,-3.9505885,-3.5979242,-2.2817118
00:53:35.934,-3.9407103,-3.5979242,-2.2788293
00:53:35.947,-3.9396172,-3.8452857,-2.2796612
00:53:35.962,-3.938671,-3.8452857,-2.2806208
00:53:35.977,-3.9315507,-3.3561904,-2.2852426
00:53:35.990,-3.923969,-3.3561904,-2.2892482
00:53:36.006,-3.925911,-4.114457,-2.2873423
00:53:36.019,-3.9281642,-4.114457,-2.2857938
00:53:36.033,-3.9239583,-3.5902247,-2.2883985
00:53:36.047,-3.9198363,-3.5902247,-2.2910032
00:53:36.062,-3.928258,-4.114457,-2.295625
00:53:36.075,-3.9359074,-4.114457,-2.2996306
00:53:36.089,-3.9298716,-3.5902247,-2.3005264
00:53:36.103,-3.9239566,-3.5902247,-2.301422
00:53:36.117,-3.926377,-4.0848265,-2.3006089
00:53:36.131,-3.928749,-4.0848265,-2.2997956
00:53:36.145,-3.9333398,-4.0725255,-2.3015459
00:53:36.159,-3.9378388,-4.0725255,-2.303296
00:53:36.174,-3.936975,-3.847622,-2.3042557
00:53:36.187,-3.9360032,-3.847622,-2.3050876
00:53:36.201,-3.9268558,-3.6022198,-2.3025653
00:53:36.216,-3.9178913,-3.6022198,-2.300043
00:53:36.230,-3.9131794,-3.5965378,-2.3017933
00:53:36.244,-3.9085617,-3.5965378,-2.3035436
00:53:36.258,-3.9129682,-3.8575559,-2.3090808
00:53:36.272,-3.9169247,-3.8575559,-2.314249
00:53:36.285,-3.9204404,-3.8575559,-2.3190482
00:53:36.305,-3.9169273,-3.855679,-2.3167849
00:53:36.313,-3.9169962,-3.8921688,-2.3173606
00:53:36.328,-3.91744,-3.8921688,-2.3183203
00:53:36.343,-3.9192898,-3.87319,-2.321111
00:53:36.358,-3.9211025,-3.87319,-2.3239017
00:53:36.372,-3.9278219,-4.1713004,-2.325652
00:53:36.386,-3.9344068,-4.1713004,-2.327402
00:53:36.401,-3.9329236,-3.723509,-2.3301928
00:53:36.414,-3.9311056,-3.723509,-2.3326116
00:53:36.428,-3.9241836,-3.7504628,-2.3292348
00:53:36.442,-3.9174,-3.7504628,-2.325858
00:53:36.456,-3.917411,-4.0415454,-2.323336
00:53:36.470,-3.917422,-4.0415454,-2.3208137
00:53:36.484,-3.9352655,-4.598224,-2.3251274
00:53:36.498,-3.952752,-4.598224,-2.329441
00:53:36.513,-3.958719,-4.069483,-2.3331473
00:53:36.527,-3.9640822,-4.069483,-2.3363595
00:53:36.540,-3.958519,-3.893243,-2.3321283
00:53:36.555,-3.953067,-3.893243,-2.327897
00:53:36.569,-3.9593916,-4.476621,-2.3236659
00:53:36.583,-3.9655895,-4.476621,-2.3194346
00:53:36.597,-3.9738157,-4.2401543,-2.3222253
00:53:36.611,-3.981513,-4.2401543,-2.324644
00:53:36.625,-3.9866154,-4.2793336,-2.3237727
00:53:36.639,-3.9916728,-4.2793336,-2.3229594
00:53:36.653,-3.9754112,-3.2184405,-2.3221462
00:53:36.668,-3.9594178,-3.2184405,-2.3212748
00:53:36.683,-3.9437442,-3.2184405,-2.3204033
00:53:36.698,-3.9668202,-5.095389,-2.3204474
00:53:36.712,-3.976958,-4.3163147,-2.3236597
00:53:36.725,-3.9871352,-4.3163147,-2.3271189
00:53:36.740,-3.9871845,-4.3014646,-2.3207543
00:53:36.753,-3.9880648,-4.3014646,-2.3152385
00:53:36.767,-4.010121,-5.046971,-2.3161342
00:53:36.782,-4.0317984,-5.046971,-2.3170938
00:53:36.796,-4.02992,-4.0137844,-2.3155453
00:53:36.809,-4.027963,-4.0137844,-2.3138776
00:53:36.823,-4.0222383,-3.739692,-2.3139188
00:53:36.837,-4.016628,-3.739692,-2.31396
00:53:36.851,-4.0066495,-3.7250257,-2.3097289
00:53:36.865,-3.9968705,-3.7250257,-2.3054976
00:53:36.880,-3.9834368,-3.4487774,-2.3029754
00:53:36.894,-3.9702718,-3.4487774,-2.3004532
00:53:36.908,-3.9801183,-4.251219,-2.304767
00:53:36.922,-3.9900696,-4.251219,-2.3093886
00:53:36.936,-3.9963267,-4.3846445,-2.307721
00:53:36.950,-4.0024586,-4.3846445,-2.3060532
00:53:36.964,-3.966126,-2.5606387,-2.298404
00:53:36.979,-3.9299846,-2.5606387,-2.2902083
00:53:36.994,-3.9331934,-3.8790603,-2.294522
00:53:37.008,-3.93664,-3.8790603,-2.2991438
00:53:37.022,-3.9357893,-3.8920853,-2.299185
00:53:37.036,-3.9349556,-3.8920853,-2.2992263
00:53:37.050,-3.9168527,-3.446488,-2.2907226
00:53:37.064,-3.8991117,-3.446488,-2.282219
00:53:37.078,-3.8843696,-2.9506357,-2.2865326
00:53:37.092,-3.8699224,-2.9506357,-2.2908463
00:53:37.106,-3.8773546,-4.281387,-2.290033
00:53:37.120,-3.884638,-4.281387,-2.2892199
00:53:37.134,-3.8918386,-4.2845187,-2.2884066
00:53:37.148,-3.898895,-4.2845187,-2.2875934
00:53:37.162,-3.8790839,-2.9481812,-2.28678
00:53:37.176,-3.8596687,-2.9481812,-2.2859669
00:53:37.191,-3.8441029,-3.2137961,-2.2832644
00:53:37.205,-3.8290248,-3.2137961,-2.2807422
00:53:37.219,-3.8494182,-4.846822,-2.2807806
00:53:37.233,-3.8694067,-4.846822,-2.2808218
00:53:37.247,-3.8858578,-4.600078,-2.282697
00:53:37.262,-3.90198,-4.600078,-2.2845721
00:53:37.276,-3.9060743,-4.104677,-2.2846134
00:53:37.291,-3.9100895,-4.104677,-2.2846575
00:53:37.305,-3.9129984,-4.0953927,-2.2838442
00:53:37.323,-3.9156218,-4.0953927,-2.2827988
00:53:37.335,-3.9204288,-4.1542478,-2.282834
00:53:37.349,-3.9251454,-4.1542478,-2.2828753
00:53:37.363,-3.9008994,-3.0039115,-2.276935
00:53:37.378,-3.8767223,-3.0039115,-2.2705705
00:53:37.391,-3.8947,-4.968126,-2.2666416
00:53:37.405,-3.9120219,-4.968126,-2.2624104
00:53:37.419,-3.9253094,-4.4487653,-2.2650151
00:53:37.433,-3.9383311,-4.4487653,-2.2676198
00:53:37.447,-3.948062,-4.7159433,-2.2616796
00:53:37.461,-3.9575982,-4.7159433,-2.2557395
00:53:37.475,-3.9387636,-3.3488045,-2.2489448
00:53:37.490,-3.9203057,-3.3488045,-2.24215
00:53:37.503,-3.9082694,-3.6514375,-2.2353554
00:53:37.518,-3.8959985,-3.6514375,-2.2280753
00:53:37.532,-3.8919506,-4.52899,-2.2110267
00:53:37.546,-3.8891773,-4.52899,-2.195196
00:53:37.560,-3.8877254,-4.6219196,-2.1787605
00:53:37.574,-3.8873763,-4.6219196,-2.163421
00:53:37.588,-3.8793209,-4.319982,-2.1463723
00:53:37.602,-3.8714263,-4.319982,-2.1293237
00:53:37.617,-3.8217735,-4.3474402,-2.068943
00:53:37.631,-3.7770586,-4.3474402,-2.0125878
00:53:37.647,-3.7253482,-4.3474402,-1.9481819
00:53:37.660,-3.6363738,1.8916385,-1.9720238
00:53:37.675,-3.5527732,1.8916385,-1.9995339
00:53:37.688,-3.5954504,-6.034667,-1.992431
00:53:37.702,-3.6367385,-6.034667,-1.9847819
00:53:37.717,-3.6350772,-3.8655438,-1.9784174
00:53:37.730,-3.604667,-1.9182804,-1.982423
00:53:37.744,-3.5751667,-1.9182804,-1.9867367
00:53:37.760,-3.5606358,-3.0855644,-1.981901
00:53:37.774,-3.5469878,-3.0855644,-1.9776698
00:53:37.787,-3.5421305,-3.2244873,-1.979295
00:53:37.802,-3.5376153,-3.2244873,-1.9811703
00:53:37.815,-3.5390835,-3.6451793,-1.9804733
00:53:37.830,-3.5403514,-3.6451793,-1.979602
00:53:37.843,-3.5369785,-3.2859519,-1.9813522
00:53:37.857,-3.5335507,-3.2859519,-1.9829774
00:53:37.872,-3.5205812,-2.7392104,-1.9859543
00:53:37.887,-3.5076885,-2.7392104,-1.9887451
00:53:37.900,-3.5122445,-3.8502398,-1.986403
00:53:37.914,-3.5165324,-3.8502398,-1.9838808
00:53:37.928,-3.5257592,-3.8502398,-1.9864855
00:53:37.942,-3.5348015,-3.8502398,-1.9890902
00:53:37.956,-3.5352008,-3.3015232,-1.9942584
00:53:37.971,-3.535954,-3.3015232,-1.9997958
00:53:37.987,-3.5286908,-3.026931,-2.0027726
00:53:38.001,-3.521026,-3.026931,-2.0051913
00:53:38.014,-3.5265584,-3.6281447,-2.0086505
00:53:38.028,-3.5319803,-3.6281447,-2.0121098
00:53:38.042,-3.538856,-3.8318763,-2.0130055
00:53:38.056,-3.5455942,-3.8318763,-2.0139012
00:53:38.070,-3.5487585,-3.5761695,-2.016506
00:53:38.084,-3.5518594,-3.5761695,-2.0191107
00:53:38.098,-3.5552452,-3.5935245,-2.0217154
00:53:38.112,-3.5585632,-3.5935245,-2.0243201
00:53:38.126,-3.5441341,-2.7513425,-2.0260704
00:53:38.140,-3.5299935,-2.7513425,-2.0278206
00:53:38.154,-3.5277789,-3.333498,-2.0295708
00:53:38.169,-3.5256085,-3.333498,-2.031321
00:53:38.182,-3.536803,-3.832095,-2.0364892
00:53:38.197,-3.5477736,-3.832095,-2.0416574
00:53:38.211,-3.5620396,-4.124339,-2.0444481
00:53:38.225,-3.575838,-4.124339,-2.0470529
00:53:38.239,-3.572067,-3.3015232,-2.048803
00:53:38.253,-3.5683715,-3.3015232,-2.0505533
00:53:38.267,-3.568568,-3.5761695,-2.0505946
00:53:38.282,-3.5687606,-3.5761695,-2.0506358
00:53:38.295,-3.5521898,-2.7382092,-2.050677
00:53:38.310,-3.5359533,-2.7382092,-2.0507212
00:53:38.325,-3.5459774,-4.124719,-2.0489342
00:53:38.339,-3.5559177,-4.124719,-2.0472665
00:53:38.353,-3.5530095,-3.5759635,-2.0438898
00:53:38.367,-3.5501595,-3.5759635,-2.040513
00:53:38.381,-3.543037,-3.3176267,-2.0379908
00:53:38.395,-3.5360568,-3.3176267,-2.0354686
00:53:38.410,-3.532667,-3.866981,-2.025256
00:53:38.423,-3.5293448,-3.866981,-2.0150433
00:53:38.437,-3.5003445,-2.1610556,-2.0133755
00:53:38.451,-3.4719243,-2.1610556,-2.0117078
00:53:38.465,-3.4800055,-3.832095,-2.0126035
00:53:38.479,-3.487925,-3.832095,-2.0134993
00:53:38.494,-3.4877174,-3.3499174,-2.016104
00:53:38.508,-3.487514,-3.3499174,-2.0187087
00:53:38.522,-3.4726791,-2.429586,-2.0251615
00:53:38.536,-3.4577196,-2.429586,-2.0311842
00:53:38.550,-3.4946177,-5.1452284,-2.0343964
00:53:38.564,-3.5312622,-5.1452284,-2.0381026
00:53:38.578,-3.5407329,-3.542201,-2.0475433
00:53:38.594,-3.5513358,-3.542201,-2.0583327
00:53:38.606,-3.5609245,-3.4907134,-2.0693543
00:53:38.621,-3.573022,-3.4907134,-2.0831313
00:53:38.636,-3.6176603,-5.264451,-2.0941617
00:53:38.651,-3.661406,-5.264451,-2.1051922
00:53:38.665,-3.6895828,-4.649527,-2.1137784
00:53:38.679,-3.717196,-4.649527,-2.1223645
00:53:38.693,-3.6540258,-0.7660195,-2.1181333
00:53:38.707,-3.592119,-0.7660195,-2.113902
00:53:38.721,-3.5840726,-3.3971326,-2.1096709
00:53:38.735,-3.5761871,-3.3971326,-2.1054397
00:53:38.749,-3.5881262,-3.5430717,-2.1182983
00:53:38.763,-3.5998266,-3.5430717,-2.131157
00:53:38.777,-3.588141,-3.306616,-2.1252167
00:53:38.791,-3.5766892,-3.306616,-2.1192765
00:53:38.806,-3.5573142,-3.0664854,-2.1099184
00:53:38.820,-3.5383265,-3.0664854,-2.1005602
00:53:38.834,-3.5444179,-3.8827398,-2.099747
00:53:38.848,-3.5503302,-3.8827398,-2.0988755
00:53:38.862,-3.5577273,-3.8016753,-2.1012943
00:53:38.876,-3.5651588,-3.8016753,-2.103899
00:53:38.890,-3.5517871,-3.3969913,-2.0936863
00:53:38.904,-3.537968,-3.3969913,-2.0827441
00:53:38.918,-3.5186064,-2.9447038,-2.075095
00:53:38.934,-3.4985614,-2.9447038,-2.066353
00:53:38.948,-3.5295274,-5.2123203,-2.0629764
00:53:38.963,-3.5596378,-5.2123203,-2.0593584
00:53:38.977,-3.52603,-2.2540636,-2.0517092
00:53:38.992,-3.492559,-2.2540636,-2.0435135
00:53:39.006,-3.4831688,-3.77469,-2.028174
00:53:39.019,-3.4750404,-3.77469,-2.01393
00:53:39.033,-3.4928813,-4.6162906,-2.0088444
00:53:39.047,-3.5103655,-4.6162906,-2.0037587
00:53:39.061,-3.5357804,-4.7790985,-2.0038
00:53:39.075,-3.560687,-4.7790985,-2.0038412
00:53:39.089,-3.536236,-2.7966917,-1.994483
00:53:39.103,-3.512274,-2.7966917,-1.9851248
00:53:39.117,-3.5031128,-3.345275,-1.9791846
00:53:39.131,-3.4941347,-3.345275,-1.9732444
00:53:39.145,-3.4882486,-3.365291,-1.9698677
00:53:39.160,-3.4824803,-3.365291,-1.966491
00:53:39.174,-3.4621813,-2.800464,-1.9596963
00:53:39.188,-3.4422882,-2.800464,-1.9529016
00:53:39.202,-3.4213042,-2.7498212,-1.9456216
00:53:39.216,-3.4012156,-2.7498212,-1.9388269
00:53:39.230,-3.3887465,-3.0269659,-1.9337412
00:53:39.245,-3.3761709,-3.0269659,-1.9282923
00:53:39.259,-3.3637168,-3.0445383,-1.9223521
00:53:39.273,-3.351512,-3.0445383,-1.9164119
00:53:39.288,-3.3546922,-3.7775276,-1.9109629
00:53:39.303,-3.3578088,-3.7775276,-1.905514
00:53:39.320,-3.339307,-2.7175264,-1.8997018
00:53:39.333,-3.3218875,-2.7175264,-1.8946161
00:53:39.345,-3.3220282,-3.5425215,-1.890257
00:53:39.359,-3.321454,-3.5425215,-1.8851713
00:53:39.373,-3.313698,-2.9735017,-1.884358
00:53:39.387,-3.306097,-2.9735017,-1.8835448
00:53:39.401,-3.2886693,-2.7257864,-1.8776046
00:53:39.415,-3.2715902,-2.7257864,-1.8716644
00:53:39.429,-3.2531111,-2.680575,-1.8648697
00:53:39.443,-3.2350016,-2.680575,-1.858075
00:53:39.458,-3.2233298,-2.694113,-1.8572037
00:53:39.472,-3.2120054,-2.694113,-1.8564485
00:53:39.485,-3.2060368,-2.9115555,-1.8564898
00:53:39.500,-3.2001905,-2.9115555,-1.856534
00:53:39.514,-3.1785,-2.1137762,-1.8565723
00:53:39.528,-3.1572459,-2.1137762,-1.8566135
00:53:39.542,-3.153006,-2.8982265,-1.8575733
00:53:39.556,-3.1487885,-2.8982265,-1.858469
00:53:39.570,-3.1399734,-2.6222763,-1.8602192
00:53:39.584,-3.1313345,-2.6222763,-1.8619695
00:53:39.598,-3.1260602,-2.865599,-1.8620107
00:53:39.613,-3.1208944,-2.865599,-1.862055
00:53:39.628,-3.1079757,-2.6073813,-1.8593526
00:53:39.642,-3.0954921,-2.6073813,-1.8568304
00:53:39.656,-3.086684,-2.6111965,-1.8577261
00:53:39.670,-3.078052,-2.6111965,-1.8586218
00:53:39.684,-3.0709558,-2.8468282,-1.8560996
00:53:39.699,-3.0640013,-2.8468282,-1.8535774
00:53:39.712,-3.055973,-2.576825,-1.8553276
00:53:39.726,-3.0481055,-2.576825,-1.8570778
00:53:39.740,-3.0457454,-2.844334,-1.8588281
00:53:39.754,-3.0434325,-2.844334,-1.8605783
00:53:39.768,-3.0343268,-2.5861263,-1.8606195
00:53:39.782,-3.0254033,-2.5861263,-1.8606608
00:53:39.797,-3.0157733,-2.5837588,-1.8598475
00:53:39.811,-3.006336,-2.5837588,-1.8590343
00:53:39.825,-3.0022469,-2.8417306,-1.858221
00:53:39.839,-2.9981825,-2.8417306,-1.8573498
00:53:39.853,-2.9855149,-2.557321,-1.8534207
00:53:39.867,-2.972508,-2.557321,-1.8488873
00:53:39.881,-2.956174,-2.2793934,-1.8463651
00:53:39.895,-2.9401665,-2.2793934,-1.8438429
00:53:39.909,-2.9369006,-2.8167312,-1.8430296
00:53:39.923,-2.9337,-2.8167312,-1.8422164
00:53:39.937,-2.917598,-2.2940528,-1.8388397
00:53:39.952,-2.9015815,-2.2940528,-1.8352218
00:53:39.966,-2.8985338,-2.7890427,-1.8344085
00:53:39.980,-2.8955472,-2.7890427,-1.8335953
00:53:39.994,-2.881778,-2.2888043,-1.8319275
00:53:40.008,-2.8682842,-2.2888043,-1.8302598
00:53:40.022,-2.8652327,-2.546211,-1.833719
00:53:40.036,-2.8622422,-2.546211,-1.8371782
00:53:40.050,-2.8624115,-3.0361676,-1.8338015
00:53:40.064,-2.8625774,-3.0361676,-1.8304248
00:53:40.078,-2.8476539,-2.0306425,-1.832175
00:53:40.092,-2.8330288,-2.0306425,-1.8339252
00:53:40.106,-2.8195307,-2.2817128,-1.831403
00:53:40.120,-2.8063025,-2.2817128,-1.8288808
00:53:40.134,-2.798046,-2.517076,-1.8263586
00:53:40.149,-2.789955,-2.517076,-1.8238363
00:53:40.162,-2.7843676,-2.5085692,-1.8238776
00:53:40.177,-2.778892,-2.5085692,-1.8239188
00:53:40.191,-2.7734416,-2.5042048,-1.823963
00:53:40.205,-2.7680974,-2.5042048,-1.8240043
00:53:40.219,-2.759043,-2.2714846,-1.8249
00:53:40.233,-2.7501698,-2.2714846,-1.8257958
00:53:40.248,-2.7376928,-2.2587447,-1.8230934
00:53:40.262,-2.725642,-2.2587447,-1.8205712
00:53:40.277,-2.7177908,-2.5103745,-1.8169533
00:53:40.291,-2.7103333,-2.5103745,-1.8135766
00:53:40.305,-2.7060823,-2.4957566,-1.8136178
00:53:40.319,-2.7019162,-2.4957566,-1.8136591
00:53:40.333,-2.6945221,-2.246451,-1.8154093
00:53:40.354,-2.6881337,-2.246451,-1.8180346
00:53:40.368,-2.6810153,-2.246451,-1.8197849
00:53:40.376,-2.6784601,-2.5103745,-1.82066
00:53:40.392,-2.6770587,-2.5103745,-1.8226603
00:53:40.406,-2.673467,-2.495449,-1.8227016
00:53:40.420,-2.6699498,-2.495449,-1.8227458
00:53:40.434,-2.6638594,-2.2378037,-1.8253505
00:53:40.447,-2.6577086,-2.2378037,-1.8277692
00:53:40.462,-2.6486866,-2.246451,-1.8269559
00:53:40.476,-2.639788,-2.246451,-1.8260846
00:53:40.490,-2.6370323,-2.500125,-1.8261229
00:53:40.504,-2.6343343,-2.500125,-1.8261641
00:53:40.518,-2.6225157,-1.9963781,-1.8271239
00:53:40.533,-2.6109333,-1.9963781,-1.8280836
00:53:40.546,-2.6114593,-2.4798336,-1.8312957
00:53:40.561,-2.6124587,-2.4798336,-1.8350021
00:53:40.576,-2.5981784,-1.9860072,-1.8332152
00:53:40.589,-2.5844173,-1.9860072,-1.8316666
00:53:40.604,-2.5732727,-1.980161,-1.8326263
00:53:40.618,-2.5622883,-1.980161,-1.8335221
00:53:40.632,-2.5572014,-2.2221859,-1.8352723
00:53:40.646,-2.5522163,-2.2221859,-1.8370225
00:53:40.660,-2.5438373,-2.2149787,-1.8353548
00:53:40.674,-2.535626,-2.2149787,-1.8336871
00:53:40.688,-2.530258,-1.9721171,-1.8397098
00:53:40.702,-2.5249975,-1.9721171,-1.8457325
00:53:40.716,-2.528083,-2.4679117,-1.8500462
00:53:40.730,-2.531107,-2.4679117,-1.8543599
00:53:40.745,-2.5382676,-2.4832318,-1.8626438
00:53:40.758,-2.5442028,-2.4832318,-1.8698232
00:53:40.772,-2.5554607,-2.7282517,-1.8775549
00:53:40.788,-2.5670347,-2.7282517,-1.8858389
00:53:40.800,-2.5709038,-2.525326,-1.8906379
00:53:40.814,-2.575057,-2.525326,-1.8958061
00:53:40.829,-2.5806935,-2.4958277,-1.9031745
00:53:40.843,-2.5857358,-2.4958277,-1.9100517
00:53:40.857,-2.5984142,-3.0233715,-1.9140573
00:53:40.871,-2.6114428,-3.0233715,-1.9186791
00:53:40.885,-2.6062908,-2.2680764,-1.9204293
00:53:40.901,-2.601487,-2.2680764,-1.9224297
00:53:40.914,-2.6094036,-2.5288904,-1.9319894
00:53:40.929,-2.6186032,-2.5288904,-1.94302
00:53:40.943,-2.6203754,-2.5377054,-1.9464792
00:53:40.957,-2.622112,-2.5377054,-1.9499384
00:53:40.971,-2.623259,-2.5518365,-1.9525431
00:53:40.985,-2.6243832,-2.5518365,-1.9551479
00:53:41.000,-2.6325965,-2.7818067,-1.9603161
00:53:41.013,-2.6406455,-2.7818067,-1.9654843
00:53:41.028,-2.6481345,-2.5524948,-1.9749249
00:53:41.041,-2.6554737,-2.5524948,-1.9843656
00:53:41.055,-2.6508718,-2.0465295,-1.9920973
00:53:41.070,-2.6463618,-2.0465295,-1.9998289
00:53:41.083,-2.6489515,-2.5644834,-2.0041428
00:53:41.097,-2.6514895,-2.5644834,-2.0084565
00:53:41.112,-2.6671846,-2.8480487,-2.0204606
00:53:41.126,-2.682566,-2.8480487,-2.0324647
00:53:41.140,-2.6905012,-2.6167462,-2.0419054
00:53:41.154,-2.698278,-2.6167462,-2.051346
00:53:41.168,-2.706848,-2.631137,-2.061461
00:53:41.182,-2.713925,-2.631137,-2.0702274
00:53:41.196,-2.724399,-2.6522794,-2.0821733
00:53:41.211,-2.7346637,-2.6522794,-2.0941193
00:53:41.227,-2.74921,-2.9332957,-2.1049087
00:53:41.240,-2.7614825,-2.9332957,-2.113675
00:53:41.255,-2.768575,-2.3961744,-2.1283677
00:53:41.271,-2.7764857,-2.3961744,-2.1440399
00:53:41.284,-2.7899835,-3.2162213,-2.148839
00:53:41.299,-2.8039348,-3.2162213,-2.1543763
00:53:41.312,-2.8181002,-2.9660177,-2.165523
00:53:41.326,-2.8328226,-2.9660177,-2.1775272
00:53:41.340,-2.8403058,-2.7025213,-2.1878223
00:53:41.354,-2.8476393,-2.7025213,-2.1981175
00:53:41.368,-2.8645277,-3.0201118,-2.2118306
00:53:41.382,-2.8810782,-3.0201118,-2.2255437
00:53:41.397,-2.8995488,-3.2641058,-2.2365742
00:53:41.410,-2.9162087,-3.2641058,-2.246134
00:53:41.424,-2.9307976,-3.0155797,-2.2589927
00:53:41.439,-2.9459946,-3.0155797,-2.2727697
00:53:41.452,-2.966277,-3.2972682,-2.2862968
00:53:41.467,-2.987173,-3.2972682,-2.3008645
00:53:41.481,-2.9864597,-2.7250464,-2.3054862
00:53:41.495,-2.985157,-2.7250464,-2.3094919
00:53:41.509,-3.000242,-3.333498,-2.3177757
00:53:41.523,-3.0144842,-3.333498,-2.3255074
00:53:41.537,-3.0130062,-2.4779994,-2.334948
00:53:41.551,-3.0115578,-2.4779994,-2.3443887
00:53:41.564,-3.0236979,-3.3445227,-2.3499813
00:53:41.579,-3.0364382,-3.3445227,-2.356434
00:53:41.594,-3.0442982,-2.7543612,-2.3702111
00:53:41.608,-3.0511007,-2.7543612,-2.3830698
00:53:41.622,-3.0817647,-3.8704908,-2.3976374
00:53:41.636,-3.1118155,-3.8704908,-2.412205
00:53:41.650,-3.1309443,-3.563786,-2.4225001
00:53:41.664,-3.1496904,-3.563786,-2.4327953
00:53:41.680,-3.1449142,-2.4601123,-2.4419947
00:53:41.692,-3.1390316,-2.4601123,-2.4499676
00:53:41.706,-3.1614203,-3.7958817,-2.4594083
00:53:41.721,-3.1840222,-3.7958817,-2.4695232
00:53:41.734,-3.203971,-3.7907917,-2.4774961
00:53:41.748,-3.2241216,-3.7907917,-2.4860823
00:53:41.763,-3.2156103,-2.4196956,-2.493814
00:53:41.776,-3.2072692,-2.4196956,-2.5015457
00:53:41.790,-3.236483,-4.3309813,-2.5084229
00:53:41.805,-3.265594,-4.3309813,-2.5157912
00:53:41.819,-3.283263,-3.758364,-2.5237641
00:53:41.833,-3.3011794,-3.758364,-2.5323503
00:53:41.847,-3.3036785,-3.4688404,-2.531479
00:53:41.861,-3.3061848,-3.4688404,-2.5306656
00:53:41.876,-3.321236,-3.7874098,-2.536203
00:53:41.890,-3.3356242,-3.7874098,-2.541371
00:53:41.906,-3.3606079,-4.103975,-2.551184
00:53:41.919,-3.3832886,-4.103975,-2.559157
00:53:41.934,-3.3889112,-3.4828053,-2.562863
00:53:41.949,-3.3944213,-3.4828053,-2.5665693
00:53:41.962,-3.3998573,-3.4699318,-2.570575
00:53:41.976,-3.4054863,-3.4699318,-2.5748887
00:53:41.990,-3.4092615,-3.424743,-2.578348
00:53:42.004,-3.4129612,-3.424743,-2.5818071
00:53:42.018,-3.4178948,-3.4901385,-2.5852664
00:53:42.032,-3.4227297,-3.4901385,-2.5887256
00:53:42.046,-3.4187713,-3.2227864,-2.5887668
00:53:42.060,-3.414892,-3.2227864,-2.588808
00:53:42.074,-3.4294922,-4.1428895,-2.5888493
00:53:42.088,-3.4438004,-4.1428895,-2.5888906
00:53:42.103,-3.450982,-3.5915186,-2.5932043
00:53:42.117,-3.458322,-3.5915186,-2.597826
00:53:42.132,-3.4620528,-3.5591042,-2.5995762
00:53:42.146,-3.465709,-3.5591042,-2.6013265
00:53:42.160,-3.4713411,-3.6105828,-2.6041172
00:53:42.174,-3.4766786,-3.6105828,-2.6067219
00:53:42.188,-3.4667196,-3.3954027,-2.5982182
00:53:42.202,-3.4569597,-3.3954027,-2.5897145
00:53:42.217,-3.4440744,-3.169421,-2.5824344
00:53:42.231,-3.4319224,-3.169421,-2.5756397
00:53:42.246,-3.4164782,-2.6126893,-2.5765994
00:53:42.260,-3.4012802,-2.6126893,-2.577495
00:53:42.274,-3.398813,-3.3177812,-2.5766819
00:53:42.288,-3.3963952,-3.3177812,-2.5758686
00:53:42.302,-3.408411,-4.246376,-2.570783
00:53:42.316,-3.4201865,-4.246376,-2.5656972
00:53:42.330,-3.420079,-3.664007,-2.5606115
00:53:42.344,-3.4199736,-3.664007,-2.5555258
00:53:42.358,-3.4123123,-3.286102,-2.55044
00:53:42.372,-3.404804,-3.286102,-2.5453544
00:53:42.386,-3.3953316,-3.2222555,-2.5394142
00:53:42.401,-3.3860488,-3.2222555,-2.533474
00:53:42.414,-3.3844025,-3.3017135,-2.5335152
00:53:42.428,-3.3827894,-3.3017135,-2.5335565
00:53:42.443,-3.3836124,-3.254438,-2.5370157
00:53:42.457,-3.384419,-3.254438,-2.540475
00:53:42.470,-3.3880358,-3.270155,-2.5464976
00:53:42.485,-3.3920019,-3.270155,-2.5529504
00:53:42.499,-3.4501245,-5.9192886,-2.560682
00:53:42.513,-3.5065436,-5.9192886,-2.5678616
00:53:42.528,-3.5867376,-7.3703775,-2.5708385
00:53:42.542,-3.6649628,-7.3703775,-2.5734432
00:53:42.557,-3.6699414,-3.7771506,-2.5762339
00:53:42.572,-3.6748204,-3.7771506,-2.5790246
00:53:42.587,-3.658843,-2.7392104,-2.5818152
00:53:42.601,-3.643003,-2.7392104,-2.58442
00:53:42.615,-3.632695,-3.0418422,-2.5861702
00:53:42.629,-3.6225932,-3.0418422,-2.5879204
00:53:42.643,-3.6351883,-4.124719,-2.5905252
00:53:42.657,-3.6475315,-4.124719,-2.5931299
00:53:42.671,-3.642855,-3.2860646,-2.5957346
00:53:42.685,-3.6382718,-3.2860646,-2.5983393
00:53:42.699,-3.6332521,-3.3015232,-2.6000896
00:53:42.713,-3.6283329,-3.3015232,-2.6018398
00:53:42.727,-3.62817,-3.5762932,-2.6027355
00:53:42.741,-3.6280103,-3.5762932,-2.6036313
00:53:42.755,-3.6243575,-3.3177426,-2.606236
00:53:42.770,-3.6207778,-3.3177426,-2.6088407
00:53:42.784,-3.6154845,-3.27034,-2.610591
00:53:42.797,-3.610297,-3.27034,-2.6123412
00:53:42.812,-3.6198003,-3.8322263,-2.6175094
00:53:42.826,-3.6291137,-3.8322263,-2.6226776
00:53:42.840,-3.639868,-3.850639,-2.6291304
00:53:42.854,-3.6499858,-3.850639,-2.635153
00:53:42.868,-3.6489227,-3.3017135,-2.6411757
00:53:42.882,-3.6478808,-3.3017135,-2.6471984
00:53:42.897,-3.6457958,-3.3171632,-2.6518202
00:53:42.912,-3.6437526,-3.3171632,-2.656442
00:53:42.926,-3.6372666,-3.3174336,-2.6564832
00:53:42.940,-3.6309104,-3.3174336,-2.6565244
00:53:42.954,-3.6048784,-2.2016833,-2.6591291
00:53:42.968,-3.5793672,-2.2016833,-2.6617339
00:53:42.982,-3.5900602,-4.0282636,-2.663484
00:53:42.996,-3.6005394,-4.0282636,-2.6652343
00:53:43.010,-3.5997472,-3.558901,-2.6652756
00:53:43.024,-3.5989707,-3.558901,-2.6653168
00:53:43.038,-3.5862327,-2.7925696,-2.668776
00:53:43.053,-3.5739913,-2.7925696,-2.6724823
00:53:43.066,-3.5704591,-3.3177426,-2.6741076
00:53:43.080,-3.56712,-3.3177426,-2.6758578
00:53:43.095,-3.5760849,-3.887727,-2.6784625
00:53:43.108,-3.5848703,-3.887727,-2.6810672
00:53:43.123,-3.5973797,-4.1245766,-2.6828175
00:53:43.137,-3.6097612,-4.1245766,-2.6846926
00:53:43.151,-3.6102517,-3.5935245,-2.6855245
00:53:43.165,-3.6108575,-3.5935245,-2.686484
00:53:43.179,-3.6093693,-3.5762932,-2.6856709
00:53:43.194,-3.607854,-3.5762932,-2.6847994
00:53:43.208,-3.6089356,-3.5761695,-2.6865497
00:53:43.223,-3.6101182,-3.5761695,-2.6884248
00:53:43.237,-3.6123364,-3.5933988,-2.6910295
00:53:43.251,-3.6145103,-3.5933988,-2.6936343
00:53:43.265,-3.608295,-3.3017135,-2.6936755
00:53:43.279,-3.6022038,-3.3017135,-2.6937168
00:53:43.293,-3.603743,-3.5933988,-2.695467
00:53:43.307,-3.6052516,-3.5933988,-2.6972172
00:53:43.321,-3.6047103,-3.5761695,-2.6972585
00:53:43.336,-3.60418,-3.5761695,-2.6972997
00:53:43.349,-3.6048424,-3.5933988,-2.6981955
00:53:43.363,-3.6054914,-3.5933988,-2.6990912
00:53:43.377,-3.60529,-3.5933988,-2.6991324
00:53:43.391,-3.6050925,-3.5933988,-2.6991737
00:53:43.405,-3.6057365,-3.5933988,-2.7000694
00:53:43.420,-3.6064303,-3.5933988,-2.701029
00:53:43.433,-3.6008358,-3.2859519,-2.701861
00:53:43.448,-3.5954785,-3.2859519,-2.7028205
00:53:43.462,-3.5899642,-3.3177426,-2.7028618
00:53:43.476,-3.5845573,-3.3177426,-2.7029002
00:53:43.490,-3.5856745,-3.5933988,-2.7038598
00:53:43.504,-3.5867069,-3.5933988,-2.7047555
00:53:43.518,-3.5827246,-3.3018277,-2.7065058
00:53:43.533,-3.5789442,-3.3018277,-2.708381
00:53:43.548,-3.5752373,-3.3017135,-2.710256
00:53:43.562,-3.5714822,-3.3017135,-2.7120063
00:53:43.576,-3.5744755,-3.5935245,-2.714611
00:53:43.590,-3.577409,-3.5935245,-2.7172158
00:53:43.604,-3.5774271,-3.5762932,-2.717257
00:53:43.619,-3.5774448,-3.5762932,-2.7172983
00:53:43.632,-3.5766249,-3.5762932,-2.716485
00:53:43.646,-3.5758212,-3.5762932,-2.7156718
00:53:43.660,-3.577202,-3.5591042,-2.717422
00:53:43.674,-3.5785553,-3.5591042,-2.7191722
00:53:43.688,-3.5810604,-3.5761695,-2.721777
00:53:43.702,-3.5835154,-3.5761695,-2.7243817
00:53:43.716,-3.591407,-3.8504615,-2.7269864
00:53:43.730,-3.599141,-3.8504615,-2.7295911
00:53:43.745,-3.59491,-3.3018277,-2.7313414
00:53:43.758,-3.5907636,-3.3018277,-2.7330916
00:53:43.773,-3.591694,-3.5933988,-2.7339873
00:53:43.787,-3.592606,-3.5933988,-2.734883
00:53:43.801,-3.5983388,-3.8322263,-2.7358427
00:53:43.815,-3.6038945,-3.8322263,-2.7367384
00:53:43.829,-3.5992532,-3.2860646,-2.7384887
00:53:43.843,-3.5947046,-3.2860646,-2.740239
00:53:43.857,-3.5960493,-3.5761695,-2.7419891
00:53:43.872,-3.5974896,-3.5761695,-2.7438643
00:53:43.887,-3.6001427,-3.5933988,-2.746655
00:53:43.901,-3.6025605,-3.5933988,-2.7492597
00:53:43.915,-3.60493,-3.5933988,-2.7518644
00:53:43.929,-3.607252,-3.5933988,-2.7544692
00:53:43.943,-3.609183,-3.5761695,-2.7570739
00:53:43.957,-3.6110756,-3.5761695,-2.7596786
00:53:43.971,-3.6054509,-3.2859519,-2.7605743
00:53:43.985,-3.5999386,-3.2859519,-2.76147
00:53:43.999,-3.5951724,-3.3177426,-2.7623658
00:53:44.014,-3.5905015,-3.3177426,-2.7632616
00:53:44.028,-3.5859241,-3.3177426,-2.7641573
00:53:44.041,-3.5887802,-3.5592263,-2.7676165
00:53:44.056,-3.591579,-3.5592263,-2.7710757
00:53:44.070,-3.5920036,-3.6107948,-2.771117
00:53:44.084,-3.5924199,-3.6107948,-2.7711582
00:53:44.098,-3.5985239,-3.8505945,-2.7721179
00:53:44.112,-3.604443,-3.8505945,-2.7730136
00:53:44.126,-3.6072679,-3.5761695,-2.7764728
00:53:44.140,-3.609794,-3.5761695,-2.779685
00:53:44.154,-3.6100519,-3.575675,-2.7806447
00:53:44.168,-3.6102421,-3.575675,-2.7815404
00:53:44.183,-3.605284,-3.270451,-2.7834156
00:53:44.198,-3.600425,-3.270451,-2.7852907
00:53:44.213,-3.607161,-3.5761695,-2.792659
00:53:44.227,-3.613281,-3.5761695,-2.7995362
00:53:44.241,-3.614254,-3.5761695,-2.8012865
00:53:44.255,-3.6152077,-3.5761695,-2.8030367
00:53:44.269,-3.609818,-3.3018277,-2.8039324
00:53:44.283,-3.604536,-3.3018277,-2.8048282
00:53:44.297,-3.6077034,-3.5933988,-2.8082874
00:53:44.311,-3.6108074,-3.5933988,-2.8117466
00:53:44.325,-3.6038287,-3.3017135,-2.8109334
00:53:44.339,-3.5969894,-3.3017135,-2.81012
00:53:44.353,-3.597451,-3.5761695,-2.8110158
00:53:44.367,-3.5979033,-3.5761695,-2.8119116
00:53:44.381,-3.5975091,-3.5761695,-2.8119528
00:53:44.395,-3.597123,-3.5761695,-2.811994
00:53:44.410,-3.599259,-3.5762932,-2.8145988
00:53:44.424,-3.6013522,-3.5762932,-2.8172035
00:53:44.438,-3.601729,-3.5762932,-2.8180993
00:53:44.452,-3.602098,-3.5762932,-2.818995
00:53:44.466,-3.6001728,-3.5933988,-2.817208
00:53:44.481,-3.5982862,-3.5933988,-2.815421
00:53:44.496,-3.600684,-3.8505945,-2.8127186
00:53:44.511,-3.6030338,-3.8505945,-2.8100162
00:53:44.524,-3.604434,-3.5933988,-2.8116415
00:53:44.539,-3.606051,-3.5933988,-2.8135166
00:53:44.554,-3.6054966,-3.5761695,-2.8135607
00:53:44.568,-3.6049507,-3.5761695,-2.813602
00:53:44.582,-3.598089,-3.3017135,-2.8127887
00:53:44.596,-3.5913646,-3.3017135,-2.8119755
00:53:44.610,-3.5914457,-3.5933988,-2.8120167
00:53:44.624,-3.5915253,-3.5933988,-2.812058
00:53:44.638,-3.5949528,-3.5933988,-2.8155172
00:53:44.652,-3.598312,-3.5933988,-2.8189764
00:53:44.666,-3.6054363,-3.8687797,-2.8207266
00:53:44.680,-3.6124184,-3.8687797,-2.8224769
00:53:44.694,-3.6117363,-3.5762932,-2.822518
00:53:44.710,-3.6110737,-3.5762932,-2.8225653
00:53:44.723,-3.6129105,-3.5935245,-2.8247979
00:53:44.736,-3.6150753,-3.5935245,-2.8274026
00:53:44.751,-3.6120002,-3.333694,-2.8300073
00:53:44.765,-3.6089866,-3.333694,-2.832612
00:53:44.779,-3.6015248,-3.3176267,-2.8309443
00:53:44.793,-3.5940955,-3.3176267,-2.8291574
00:53:44.807,-3.5882905,-3.3018277,-2.8291986
00:53:44.821,-3.5826015,-3.3018277,-2.8292398
00:53:44.835,-3.5760875,-3.2548757,-2.829281
00:53:44.849,-3.5697036,-3.2548757,-2.8293223
00:53:44.864,-3.5736787,-3.5420008,-2.833944
00:53:44.879,-3.5775745,-3.5420008,-2.8385658
00:53:44.893,-3.5737748,-3.3018277,-2.840316
00:53:44.907,-3.5700512,-3.3018277,-2.8420663
00:53:44.921,-3.57654,-3.8505945,-2.842962
00:53:44.935,-3.5828989,-3.8505945,-2.8438578
00:53:44.950,-3.5814745,-3.5933988,-2.84219
00:53:44.963,-3.5800786,-3.5933988,-2.8405223
00:53:44.977,-3.5803878,-3.5935245,-2.8405635
00:53:44.991,-3.5806909,-3.5935245,-2.8406048
00:53:45.005,-3.5806434,-3.5762932,-2.840646
00:53:45.056,-3.5807009,-3.5762932,-2.8407934
00:53:45.063,-3.581468,-3.5761695,-2.8416686
00:53:45.076,-3.5829551,-3.5761695,-2.843294
00:53:45.090,-3.58286,-3.5761695,-2.8433352
00:53:45.104,-3.5827696,-3.5761695,-2.8433793
00:53:45.118,-3.582678,-3.5761695,-2.8434205
00:53:45.132,-3.5825856,-3.5761695,-2.843459
00:53:45.146,-3.5733137,-3.0271056,-2.845334
00:53:45.172,-3.565575,-3.0271056,-2.8485844
00:53:45.175,-3.56614,-3.5933988,-2.8485932
00:53:45.201,-3.56676,-3.5933988,-2.8486698
00:53:45.250,-3.5674345,-3.5933988,-2.8488142
00:53:45.270,-3.572448,-3.5759635,-2.853756
00:53:45.289,-3.5716343,-3.3017135,-2.8584507
00:53:45.305,-3.5701103,-3.3017135,-2.862404
00:53:45.324,-3.5702865,-3.5761695,-2.8624601
00:53:45.336,-3.570068,-3.5935245,-2.861763
00:53:45.360,-3.5691707,-3.5935245,-2.860369
00:53:45.373,-3.571248,-3.5933988,-2.8619943
00:53:45.385,-3.5731611,-3.5933988,-2.8634944
00:53:45.404,-3.5806677,-3.832095,-2.8658698
00:53:45.418,-3.5874114,-3.832095,-2.86762
00:53:45.438,-3.5990822,-3.8690047,-2.8737824
00:53:45.456,-3.6013026,-3.8690047,-2.8705397
00:53:45.471,-3.6041849,-3.8690047,-2.8680174
00:53:45.488,-3.5992606,-3.3015232,-2.8691692
00:53:45.502,-3.5941837,-3.3015232,-2.870065
00:53:45.520,-3.5942225,-3.5935245,-2.8701181
00:53:45.535,-3.5951467,-3.5933988,-2.8710778
00:53:45.551,-3.596115,-3.5933988,-2.8721015
00:53:45.568,-3.5998352,-3.5762932,-2.876302
00:53:45.577,-3.601698,-3.610922,-2.8779764
00:53:45.605,-3.6069877,-3.610922,-2.8831859
00:53:45.621,-3.6067622,-3.5933988,-2.883233
00:53:45.635,-3.613278,-3.8140318,-2.8856518
00:53:45.649,-3.6200278,-3.8140318,-2.8884425
00:53:45.662,-3.6227372,-3.5592263,-2.8924482
00:53:45.676,-3.6256943,-3.5592263,-2.896762
00:53:45.690,-3.6284633,-3.887727,-2.8942397
00:53:45.705,-3.631,-3.887727,-2.8915372
00:53:45.720,-3.637227,-3.8504615,-2.8934124
00:53:45.733,-3.6430845,-3.8504615,-2.8950377
00:53:45.748,-3.6389883,-3.3015232,-2.8978283
00:53:45.761,-3.6346095,-3.3015232,-2.900247
00:53:45.776,-3.6365201,-3.5933988,-2.9030378
00:53:45.789,-3.6380281,-3.5933988,-2.9054565
00:53:45.805,-3.6326232,-3.3176267,-2.9064803
00:53:45.821,-3.6273265,-3.3176267,-2.907504
00:53:45.833,-3.6266825,-3.5933988,-2.9075394
00:53:45.848,-3.62606,-3.5933988,-2.9075835
00:53:45.862,-3.6242654,-3.5761695,-2.9067702
00:53:45.876,-3.6225066,-3.5761695,-2.905957
00:53:45.891,-3.620726,-3.5761695,-2.9050856
00:53:45.904,-3.619095,-3.5761695,-2.9043305
00:53:45.918,-3.6202965,-3.5933988,-2.9060807
00:53:45.934,-3.621719,-3.5933988,-2.908081
00:53:45.946,-3.6229959,-3.5761695,-2.9103136
00:53:45.960,-3.624612,-3.5761695,-2.9129183
00:53:45.975,-3.6203122,-3.3177426,-2.9147935
00:53:45.988,-3.6158535,-3.3177426,-2.9164188
00:53:46.002,-3.6227336,-3.8322263,-2.9190235
00:53:46.018,-3.6296582,-3.8322263,-2.9218142
00:53:46.030,-3.628973,-3.5935245,-2.9218526
00:53:46.045,-3.6283045,-3.5935245,-2.9218938
00:53:46.060,-3.6299992,-3.5762932,-2.9246845
00:53:46.072,-3.6312954,-3.5762932,-2.9271033
00:53:46.087,-3.634172,-3.5935245,-2.9308095
00:53:46.101,-3.636749,-3.5935245,-2.9342687
00:53:46.115,-3.6317658,-3.3018277,-2.936019
00:53:46.130,-3.6268823,-3.3018277,-2.9377692
00:53:46.143,-3.6201005,-3.2857642,-2.9378104
00:53:46.158,-3.6134572,-3.2857642,-2.9378545
00:53:46.173,-3.609378,-3.3176267,-2.9397297
00:53:46.187,-3.6052582,-3.3176267,-2.94148
00:53:46.201,-3.6072316,-3.5762932,-2.9440846
00:53:46.215,-3.6091654,-3.5762932,-2.9466894
00:53:46.229,-3.6105678,-3.5935245,-2.9484396
00:53:46.243,-3.611942,-3.5935245,-2.9501898
00:53:46.257,-3.6064136,-3.333498,-2.950231
00:53:46.271,-3.6009958,-3.333498,-2.9502723
00:53:46.287,-3.6018496,-3.5935245,-2.951296
00:53:46.306,-3.6028118,-3.5935245,-2.952448
00:53:46.313,-3.609702,-3.8504615,-2.9544246
00:53:46.328,-3.6179073,-3.8504615,-2.9578838
00:53:46.342,-3.6196277,-3.5762932,-2.9604886
00:53:46.356,-3.6213136,-3.5762932,-2.9630933
00:53:46.370,-3.6152802,-3.3176267,-2.9631345
00:53:46.384,-3.6093702,-3.3176267,-2.9631786
00:53:46.407,-3.6036017,-3.3176267,-2.9632463
00:53:46.419,-3.599034,-3.3017135,-2.9647465
00:53:46.437,-3.5952933,-3.3017135,-2.966997
00:53:46.453,-3.5894701,-3.3018277,-2.967044
00:53:46.469,-3.5837636,-3.3018277,-2.9670913
00:53:46.485,-3.5855722,-3.5761695,-2.9690917
00:53:46.503,-3.5875897,-3.5761695,-2.971342
00:53:46.519,-3.5889804,-3.5591042,-2.9733424
00:53:46.535,-3.5903432,-3.5591042,-2.9753428
00:53:46.550,-3.592242,-3.5933988,-2.977218
00:53:46.567,-3.594348,-3.5933988,-2.9793432
00:53:46.583,-3.5946465,-3.5591042,-2.980367
00:53:46.600,-3.5990858,-3.6107948,-2.9845674
00:53:46.618,-3.6036787,-3.6107948,-2.989015
00:53:46.633,-3.5982668,-3.2860646,-2.9899747
00:53:46.650,-3.5930889,-3.2860646,-2.9910624
00:53:46.669,-3.5887709,-3.3176267,-2.992278
00:53:46.683,-3.5827549,-3.2859519,-2.9923193
00:53:46.699,-3.5858204,-3.5423212,-2.9962728
00:53:46.712,-3.587856,-3.5423212,-2.9992378
00:53:46.726,-3.5903573,-3.5761695,-3.0020285
00:53:46.741,-3.5928085,-3.5761695,-3.0048192
00:53:46.754,-3.5862489,-3.3018277,-3.004064
00:53:46.768,-3.5797634,-3.3018277,-3.0032508
00:53:46.783,-3.588286,-3.8691397,-3.0060415
00:53:46.798,-3.596638,-3.8691397,-3.0088322
00:53:46.811,-3.597044,-3.5761695,-3.009664
00:53:46.826,-3.597567,-3.5761695,-3.0106237
00:53:46.840,-3.5955048,-3.5761695,-3.008956
00:53:46.855,-3.5934837,-3.5761695,-3.0072882
00:53:46.868,-3.595545,-3.6107948,-3.0090384
00:53:46.882,-3.5975652,-3.6107948,-3.0107887
00:53:46.896,-3.6026635,-3.8504615,-3.01083
00:53:46.910,-3.60766,-3.8504615,-3.0108712
00:53:46.924,-3.6079106,-3.5762932,-3.011767
00:53:46.938,-3.6081562,-3.5762932,-3.0126626
00:53:46.952,-3.6117463,-3.5762932,-3.0169764
00:53:46.967,-3.6152647,-3.5762932,-3.02129
00:53:46.980,-3.6225212,-3.8504615,-3.0238948
00:53:46.995,-3.6296327,-3.8504615,-3.0264995
00:53:47.009,-3.6281135,-3.5935245,-3.0256863
00:53:47.023,-3.6266246,-3.5935245,-3.024873
00:53:47.037,-3.6327271,-3.887864,-3.0257688
00:53:47.051,-3.6387076,-3.887864,-3.0266645
00:53:47.065,-3.6405387,-3.5935245,-3.0294552
00:53:47.079,-3.6421509,-3.5935245,-3.03206
00:53:47.093,-3.6428912,-3.5933988,-3.0338101
00:53:47.108,-3.643739,-3.5933988,-3.0356853
00:53:47.123,-3.6469128,-3.5759635,-3.040307
00:53:47.138,-3.650023,-3.5759635,-3.0449288
00:53:47.152,-3.6457353,-3.5592263,-3.0424066
00:53:47.166,-3.6415331,-3.5592263,-3.0398843
00:53:47.180,-3.6382525,-3.5592263,-3.0382166
00:53:47.194,-3.6350374,-3.5592263,-3.0365489
00:53:47.208,-3.6409717,-3.887864,-3.0374446
00:53:47.222,-3.6467872,-3.887864,-3.0383403
00:53:47.236,-3.639407,-3.3176267,-3.037527
00:53:47.251,-3.6321173,-3.3176267,-3.0366557
00:53:47.264,-3.6325936,-3.5762932,-3.038281
00:53:47.278,-3.6331828,-3.5762932,-3.0400312
00:53:47.293,-3.635122,-3.5933988,-3.042822
00:53:47.307,-3.6368403,-3.5933988,-3.0454266
00:53:47.321,-3.6326928,-3.3018277,-3.0480313
00:53:47.335,-3.628628,-3.3018277,-3.050636
00:53:47.349,-3.6226547,-3.2860646,-3.0515318
00:53:47.363,-3.6168008,-3.2860646,-3.0524275
00:53:47.377,-3.6167212,-3.6107948,-3.0524688
00:53:47.391,-3.616643,-3.6107948,-3.05251
00:53:47.405,-3.626845,-4.124719,-3.0525513
00:53:47.419,-3.6368427,-4.124719,-3.0525925
00:53:47.433,-3.6313362,-3.3176267,-3.0534883
00:53:47.448,-3.6260023,-3.3176267,-3.054448
00:53:47.463,-3.6257412,-3.6107948,-3.054492
00:53:47.478,-3.6254854,-3.6107948,-3.054536
00:53:47.492,-3.626559,-3.5933988,-3.0562863
00:53:47.507,-3.6277335,-3.5933988,-3.0581615
00:53:47.539,-3.6361113,-3.8505945,-3.0621622
00:53:47.555,-3.6423612,-3.8505945,-3.0641625
00:53:47.571,-3.6371872,-3.333498,-3.0651863
00:53:47.584,-3.6319287,-3.333498,-3.066018
00:53:47.605,-3.6363628,-3.8505945,-3.06608
00:53:47.621,-3.6300335,-3.3177426,-3.0661242
00:53:47.634,-3.6238282,-3.3177426,-3.0661654
00:53:47.655,-3.6299884,-3.8691397,-3.067445
00:53:47.670,-3.6357749,-3.8691397,-3.0684688
00:53:47.688,-3.6415682,-3.8690047,-3.0696206
00:53:47.701,-3.6469321,-3.8690047,-3.0704525
00:53:47.720,-3.6487992,-3.5761695,-3.0738015
00:53:47.737,-3.648471,-3.5759635,-3.0749533
00:53:47.754,-3.6480868,-3.5759635,-3.076041
00:53:47.770,-3.642477,-3.3174336,-3.0770648
00:53:47.785,-3.636854,-3.3174336,-3.0779605
00:53:47.800,-3.636646,-3.5762932,-3.0789843
00:53:47.817,-3.636505,-3.5762932,-3.080072
00:53:47.834,-3.6428668,-3.8504615,-3.0821972
00:53:47.851,-3.6405609,-3.5759635,-3.0812097
00:53:47.870,-3.6382444,-3.5759635,-3.0801642
00:53:47.885,-3.6360946,-3.5762932,-3.0792348
00:53:47.891,-3.6363237,-3.6107948,-3.079985
00:53:47.922,-3.639611,-3.6107948,-3.0838604
00:53:47.936,-3.6348865,-3.3176267,-3.0856106
00:53:47.948,-3.635527,-3.5933988,-3.0871108
00:53:47.962,-3.6362772,-3.5933988,-3.088736
00:53:47.975,-3.6376278,-3.5761695,-3.0913408
00:53:47.990,-3.6389513,-3.5761695,-3.0939455
00:53:48.004,-3.6402514,-3.5763345,-3.0965502
00:53:48.018,-3.6415255,-3.5763345,-3.099155
00:53:48.032,-3.6418512,-3.6107948,-3.1001146
00:53:48.046,-3.6420453,-3.6107948,-3.1009464
00:53:48.061,-3.6394312,-3.3176267,-3.1049
00:53:48.075,-3.636385,-3.3176267,-3.108359
00:53:48.089,-3.6355681,-3.5935245,-3.1084003
00:53:48.103,-3.6347675,-3.5935245,-3.1084416
00:53:48.118,-3.6368887,-3.5592263,-3.1121478
00:53:48.133,-3.6389675,-3.5592263,-3.115854
00:53:48.147,-3.6365733,-3.5591042,-3.1150408
00:53:48.162,-3.63417,-3.5591042,-3.1141694
00:53:48.176,-3.6333952,-3.5933988,-3.1142106
00:53:48.190,-3.6326358,-3.5933988,-3.1142519
00:53:48.203,-3.6327603,-3.5592263,-3.1158772
00:53:48.218,-3.6331272,-3.5592263,-3.1177523
00:53:48.231,-3.6370382,-3.5935245,-3.1225514
00:53:48.245,-3.6412327,-3.5935245,-3.1277196
00:53:48.261,-3.64251,-3.5592263,-3.1306965
00:53:48.273,-3.643032,-3.5592263,-3.132929
00:53:48.288,-3.64443,-3.5761695,-3.1357198
00:53:48.302,-3.6456175,-3.5761695,-3.1383245
00:53:48.316,-3.6477168,-3.5931897,-3.1415367
00:53:48.330,-3.6502583,-3.5931897,-3.145243
00:53:48.344,-3.6448803,-3.3017135,-3.1468682
00:53:48.358,-3.6398547,-3.3017135,-3.1487434
00:53:48.372,-3.6336544,-3.2859519,-3.1496391
00:53:48.386,-3.627578,-3.2859519,-3.1505349
00:53:48.400,-3.627926,-3.5592263,-3.152285
00:53:48.414,-3.6282673,-3.5592263,-3.1540353
00:53:48.428,-3.6331224,-3.8690047,-3.1540766
00:53:48.443,-3.6378832,-3.8690047,-3.1541207
00:53:48.458,-3.6372504,-3.5592263,-3.1550803
00:53:48.472,-3.6365676,-3.5592263,-3.155976
00:53:48.486,-3.641609,-3.5935245,-3.1619987
00:53:48.500,-3.6465495,-3.5935245,-3.1680214
00:53:48.514,-3.646022,-3.5762932,-3.1689172
00:53:48.528,-3.6455054,-3.5762932,-3.169813
00:53:48.542,-3.6415005,-3.3176267,-3.1724176
00:53:48.556,-3.6375756,-3.3176267,-3.1750224
00:53:48.570,-3.6334112,-3.3017135,-3.177627
00:53:48.584,-3.62933,-3.3017135,-3.1802318
00:53:48.598,-3.6434622,-4.1245766,-3.1845455
00:53:48.612,-3.657312,-4.1245766,-3.1888592
00:53:48.627,-3.6530707,-3.3176267,-3.191464
00:53:48.640,-3.6489143,-3.3176267,-3.1940687
00:53:48.655,-3.654663,-3.8505945,-3.195819
00:53:48.669,-3.6604195,-3.8505945,-3.197694
00:53:48.683,-3.6527689,-3.3177426,-3.1968808
00:53:48.697,-3.6452713,-3.3177426,-3.1960676
00:53:48.711,-3.6456003,-3.5759635,-3.1978178
00:53:48.725,-3.6459227,-3.5759635,-3.199568
00:53:48.740,-3.6460264,-3.5592263,-3.2014432
00:53:48.755,-3.646128,-3.5592263,-3.2033184
00:53:48.770,-3.6419747,-3.3017135,-3.206109
00:53:48.784,-3.6377223,-3.3017135,-3.2087138
00:53:48.798,-3.6327174,-3.3017135,-3.210464
00:53:48.812,-3.6278126,-3.3017135,-3.2122142
00:53:48.826,-3.628156,-3.5592263,-3.2139645
00:53:48.840,-3.6284926,-3.5592263,-3.2157147
00:53:48.854,-3.6281817,-3.610922,-3.215756
00:53:48.868,-3.627877,-3.610922,-3.2157972
00:53:48.882,-3.6293912,-3.5759635,-3.218402
00:53:48.896,-3.630875,-3.5759635,-3.2210066
00:53:48.910,-3.6310058,-3.5935245,-3.2219024
00:53:48.925,-3.6311338,-3.5935245,-3.222798
00:53:48.938,-3.6341171,-3.6107948,-3.2262573
00:53:48.952,-3.6370406,-3.6107948,-3.2297165
00:53:48.967,-3.6348636,-3.3017135,-3.2343383
00:53:48.981,-3.6324282,-3.3017135,-3.238652
00:53:48.996,-3.632246,-3.5762932,-3.2396116
00:53:49.009,-3.6319423,-3.5762932,-3.2404435
00:53:49.025,-3.6356583,-3.5761695,-3.2453735
00:53:49.039,-3.638696,-3.5761695,-3.2496872
00:53:49.054,-3.6402829,-3.8504615,-3.2469847
00:53:49.067,-3.6421914,-3.8504615,-3.2446427
00:53:49.081,-3.635743,-3.3177426,-3.244684
00:53:49.096,-3.629426,-3.3177426,-3.244728
00:53:49.110,-3.636402,-3.8505945,-3.2473328
00:53:49.124,-3.6432383,-3.8505945,-3.2499375
00:53:49.138,-3.6384373,-3.3174336,-3.2516878
00:53:49.152,-3.6337323,-3.3174336,-3.253438
00:53:49.166,-3.626604,-3.3171632,-3.2526248
00:53:49.180,-3.6196184,-3.3171632,-3.2518115
00:53:49.194,-3.6141384,-3.3017135,-3.2527072
00:53:49.208,-3.6087677,-3.3017135,-3.253603
00:53:49.222,-3.609334,-3.5931897,-3.2544987
00:53:49.236,-3.6098888,-3.5931897,-3.2553945
00:53:49.250,-3.6097534,-3.5592263,-3.2562902
00:53:49.264,-3.6096206,-3.5592263,-3.257186
00:53:49.279,-3.6028745,-3.270155,-3.25723
00:53:49.293,-3.5962577,-3.270155,-3.2572684
00:53:49.308,-3.5891974,-3.2859519,-3.256397
00:53:49.322,-3.5822785,-3.2859519,-3.2555256
00:53:49.336,-3.5800595,-3.3018277,-3.2589848
00:53:49.350,-3.577885,-3.3018277,-3.262444
00:53:49.364,-3.574077,-3.3017135,-3.2641943
00:53:49.379,-3.5704675,-3.3017135,-3.2660694
00:53:49.393,-3.5731342,-3.5761695,-3.2686741
00:53:49.408,-3.5759299,-3.5761695,-3.2714648
00:53:49.422,-3.577997,-3.5935245,-3.273215
00:53:49.437,-3.5801451,-3.5935245,-3.2750902
00:53:49.451,-3.5842955,-3.5762932,-3.279404
00:53:49.465,-3.588363,-3.5762932,-3.2837176
00:53:49.479,-3.588504,-3.5933988,-3.2837589
00:53:49.493,-3.5886424,-3.5933988,-3.2838001
00:53:49.507,-3.584937,-3.3176267,-3.2855504
00:53:49.521,-3.581306,-3.3176267,-3.2873006
00:53:49.535,-3.582081,-3.5761695,-3.2881963
00:53:49.549,-3.5828407,-3.5761695,-3.289092
00:53:49.564,-3.5890737,-3.8505945,-3.2899878
00:53:49.578,-3.595182,-3.8505945,-3.2908835
00:53:49.591,-3.605263,-3.887864,-3.2951972
00:53:49.605,-3.6151423,-3.887864,-3.299511
00:53:49.620,-3.614058,-3.558901,-3.2995522
00:53:49.634,-3.612998,-3.558901,-3.2995963
00:53:49.648,-3.614317,-3.5931897,-3.3013465
00:53:49.662,-3.6156096,-3.5931897,-3.3030968
00:53:49.676,-3.6240704,-3.8691397,-3.306556
00:53:49.690,-3.632362,-3.8691397,-3.3100152
00:53:49.704,-3.6392791,-3.8505945,-3.31262
00:53:49.718,-3.646058,-3.8505945,-3.3152246
00:53:49.732,-3.6480505,-3.5761695,-3.3186839
00:53:49.747,-3.650003,-3.5761695,-3.322143
00:53:49.760,-3.651079,-3.5761695,-3.3247478
00:53:49.774,-3.6521335,-3.5761695,-3.3273525
00:53:49.788,-3.6594007,-3.887864,-3.3299572
00:53:49.802,-3.6665225,-3.887864,-3.332562
00:53:49.816,-3.672754,-3.8504615,-3.3351667
00:53:49.830,-3.678861,-3.8504615,-3.3377714
00:53:49.844,-3.6771946,-3.5935245,-3.3378127
00:53:49.858,-3.6755614,-3.5935245,-3.337854
00:53:49.872,-3.67495,-3.5592263,-3.3396041
00:53:49.887,-3.6743505,-3.5592263,-3.3413544
00:53:49.901,-3.6769164,-3.5761695,-3.345976
00:53:49.915,-3.678827,-3.5761695,-3.3499818
00:53:49.929,-3.6846273,-3.832095,-3.3527725
00:53:49.949,-3.6912231,-3.832095,-3.3564935
00:53:49.962,-3.696411,-3.832095,-3.3589122
00:53:49.973,-3.6960142,-3.5762932,-3.3609588
00:53:49.985,-3.694307,-3.5761695,-3.3616626
00:53:50.002,-3.6930733,-3.5761695,-3.3628144
00:53:50.015,-3.6918907,-3.5931897,-3.3636463
00:53:50.028,-3.6907318,-3.5931897,-3.364478
00:53:50.042,-3.6900134,-3.610922,-3.3653738
00:53:50.062,-3.6896856,-3.610922,-3.3666534
00:53:50.075,-3.6890106,-3.5762932,-3.3682787
00:53:50.092,-3.688839,-3.5762932,-3.370404
00:53:50.104,-3.6884003,-3.5933988,-3.3719041
00:53:50.118,-3.6882155,-3.5933988,-3.3736544
00:53:50.133,-3.6859143,-3.3018277,-3.3791916
00:53:50.146,-3.6829357,-3.3018277,-3.3839908
00:53:50.160,-3.6833532,-3.5761695,-3.3865955
00:53:50.174,-3.6837623,-3.5761695,-3.3892002
00:53:50.189,-3.6773317,-3.27034,-3.3910754
00:53:50.203,-3.6709073,-3.27034,-3.3928256
00:53:50.218,-3.6647844,-3.3177426,-3.3937852
00:53:50.236,-3.6589096,-3.3177426,-3.394873
00:53:50.254,-3.653215,-3.3177426,-3.3960247
00:53:50.275,-3.6537485,-3.610922,-3.3974323
00:53:50.300,-3.6567552,-3.5761695,-3.4020836
00:53:50.319,-3.6616557,-3.5761695,-3.4087286
00:53:50.334,-3.6657345,-3.5761695,-3.4146352
00:53:50.353,-3.6698546,-3.8690047,-3.4146912
00:53:50.371,-3.6738865,-3.8690047,-3.4147413
00:53:50.387,-3.6678984,-3.27034,-3.4168665
00:53:50.404,-3.663359,-3.2859519,-3.4200294
00:53:50.420,-3.6587281,-3.2859519,-3.4230063
00:53:50.436,-3.6580827,-3.5762932,-3.42403
00:53:50.450,-3.6573248,-3.5762932,-3.4249258
00:53:50.469,-3.6561012,-3.5933988,-3.4249818
00:53:50.485,-3.6548934,-3.5933988,-3.425029
00:53:50.501,-3.6607652,-3.8504615,-3.4270294
00:53:50.519,-3.6557896,-3.3017135,-3.4292798
00:53:50.537,-3.6509137,-3.3017135,-3.4315302
00:53:50.551,-3.6531534,-3.5933988,-3.4349895
00:53:50.570,-3.6565592,-3.5933988,-3.4396842
00:53:50.587,-3.663537,-3.8504615,-3.442847
00:53:50.600,-3.6652846,-3.5935245,-3.4460592
00:53:50.620,-3.668692,-3.5935245,-3.451001
00:53:50.628,-3.668044,-3.5933988,-3.4518762
00:53:50.651,-3.6694918,-3.5933988,-3.4548767
00:53:50.656,-3.66243,-3.2857642,-3.4555018
00:53:50.670,-3.6552525,-3.3015232,-3.455543
00:53:50.684,-3.6482184,-3.3015232,-3.4555843
00:53:50.698,-3.6484928,-3.5761695,-3.4573345
00:53:50.714,-3.6490068,-3.5761695,-3.4593349
00:53:50.729,-3.6500802,-3.6107948,-3.46121
00:53:50.743,-3.6510098,-3.6107948,-3.4629602
00:53:50.757,-3.6567142,-3.8504615,-3.4647105
00:53:50.772,-3.6623044,-3.8504615,-3.4664607
00:53:50.785,-3.662992,-3.610922,-3.468211
00:53:50.800,-3.6636658,-3.610922,-3.4699612
00:53:50.814,-3.66961,-3.8690047,-3.4718363
00:53:50.831,-3.675558,-3.8690047,-3.4738367
00:53:50.841,-3.669116,-3.2860646,-3.4752119
00:53:50.856,-3.6631703,-3.2860646,-3.476962
00:53:50.870,-3.665165,-3.5933988,-3.4804213
00:53:50.883,-3.6671197,-3.5933988,-3.4838805
00:53:50.898,-3.665,-3.5591042,-3.4839218
00:53:50.912,-3.6629224,-3.5591042,-3.483963
00:53:50.926,-3.668759,-3.8690047,-3.4857132
00:53:50.951,-3.6759493,-3.8690047,-3.4889636
00:53:50.955,-3.6743171,-3.5759635,-3.4893386

